Time(s),Acceleration X (g),Acceleration Y (g),Acceleration Z (g),Angular Momentum X (dps),Angular Momentum Y (dps),Angular Momentum Z (dps)
0.000143,0.015625,1.001343,-0.115723,0.782013,1.575470,-1.148224
0.000275,0.013428,0.997559,-0.117188,-0.392914,-0.396729,0.762939
0.000376,0.014160,0.997192,-0.119629,-0.392914,0.785828,-0.766754
0.000567,0.014526,1.001221,-0.124634,-1.564026,-1.972198,0.381470
0.000663,0.010742,0.997925,-0.125122,1.564026,0.785828,-0.766754
0.000815,0.012207,0.995239,-0.121094,-0.392914,-1.972198,-1.529694
0.000962,0.014648,0.997925,-0.121216,-0.392914,0.000000,-0.766754
0.001109,0.013184,0.996582,-0.119995,1.174927,2.365112,0.762939
0.001256,0.012085,0.996826,-0.118042,-0.782013,-1.972198,-1.148224
0.001786,0.018311,0.992065,-0.118896,-1.956940,-1.579285,-1.911163
0.001993,0.012573,0.994751,-0.120239,2.349854,-1.186371,-1.911163
0.002138,0.006104,0.990601,-0.117310,-0.392914,1.182556,-0.385284
0.002284,0.013672,0.993286,-0.118286,1.174927,-0.789642,0.762939
0.002432,0.016357,0.993774,-0.119507,-1.564026,1.575470,0.000000
0.002579,0.014893,0.992798,-0.116455,0.392914,-0.789642,0.381470
0.002726,0.010986,1.000000,-0.116943,-0.782013,-0.789642,-2.292633
0.002873,0.015625,0.998779,-0.118408,-0.782013,0.000000,0.762939
0.003019,0.021484,0.995605,-0.114868,-0.392914,-0.396729,0.762939
0.003305,0.021729,0.996704,-0.120850,-0.782013,0.392914,0.762939
0.003460,0.012451,0.997925,-0.115479,1.174927,-1.972198,-1.529694
0.003606,0.013306,0.999146,-0.113770,-0.782013,2.365112,1.144409
0.003751,0.017700,0.997559,-0.119507,0.392914,0.392914,-1.529694
0.003898,0.019897,0.996094,-0.117188,-1.564026,0.392914,0.762939
0.004045,0.018921,1.000610,-0.116211,0.392914,-3.154755,-1.529694
0.004192,0.015869,1.000244,-0.117310,-1.174927,1.182556,1.144409
0.004338,0.014404,1.000488,-0.118896,1.956940,-1.186371,-2.292633
0.004485,0.012939,0.999023,-0.115356,-0.782013,0.000000,1.144409
0.004633,0.014282,0.991943,-0.119873,0.782013,1.182556,-0.385284
0.004779,0.013672,0.992065,-0.118774,1.174927,0.000000,-0.385284
0.004926,0.012939,0.992920,-0.117554,-1.174927,-0.396729,-1.529694
0.005073,0.015747,0.988281,-0.122070,-1.174927,0.000000,1.144409
0.005220,0.013306,0.991211,-0.114624,1.956940,-1.579285,-2.674103
0.005367,0.012329,0.997559,-0.119629,-2.349854,-0.396729,1.144409
0.005514,0.016724,0.996338,-0.122803,1.956940,0.785828,-1.911163
0.005661,0.019653,1.000610,-0.122803,-1.956940,-0.396729,1.144409
0.005808,0.014038,0.998535,-0.121826,1.956940,1.968384,-0.385284
0.005955,0.017090,0.997070,-0.121216,-1.174927,-0.789642,0.381470
0.006102,0.011719,0.996704,-0.118286,0.392914,-1.972198,-3.437042
0.006249,0.009277,0.996826,-0.114014,-1.564026,2.365112,2.670288
0.006396,0.018799,0.998535,-0.120117,1.564026,-3.551483,-4.199982
0.006543,0.014648,1.000610,-0.121094,-0.392914,0.785828,2.288818
0.006690,0.013916,1.005737,-0.120361,-0.392914,1.182556,-1.148224
0.006837,0.011353,0.999023,-0.121094,0.782013,-0.789642,0.381470
0.006984,0.013306,0.996216,-0.119019,0.782013,0.392914,-1.529694
0.007131,0.018066,0.996094,-0.115723,0.000000,0.000000,0.762939
0.007278,0.014404,0.996094,-0.117554,-1.564026,-0.396729,-0.766754
0.007425,0.013062,0.997070,-0.118408,-2.349854,1.575470,-0.385284
0.007572,0.011841,0.987427,-0.119873,4.695892,-4.337311,-1.911163
0.007718,0.012329,0.987305,-0.124512,-3.520966,1.182556,2.288818
0.007866,0.015259,0.996094,-0.122314,2.738953,0.392914,-2.674103
0.008012,0.013916,0.996948,-0.118164,1.564026,0.000000,0.762939
0.008159,0.010742,0.995605,-0.117188,-2.738953,0.000000,-1.529694
0.008306,0.023560,0.994507,-0.122925,-0.782013,1.575470,1.907349
0.008453,0.023804,1.000000,-0.120239,1.174927,-1.972198,-1.911163
0.008600,0.010742,1.002319,-0.118408,-1.174927,-0.396729,-0.385284
0.008747,0.009155,0.997803,-0.117798,0.000000,-0.396729,0.762939
0.008894,0.011841,0.993164,-0.115601,1.174927,-0.789642,-3.437042
0.009041,0.013794,0.991455,-0.117676,0.000000,0.785828,1.144409
0.009188,0.012451,0.995728,-0.117310,0.392914,-1.186371,-0.385284
0.009335,0.018433,0.997192,-0.117920,0.782013,1.575470,-1.148224
0.009482,0.019531,0.997314,-0.116943,-1.174927,-1.186371,1.144409
0.009629,0.015625,1.002930,-0.115234,-1.174927,0.392914,-1.911163
0.009776,0.020264,0.999268,-0.113892,1.174927,0.000000,-0.385284
0.009923,0.018066,0.996460,-0.117676,0.000000,-1.972198,0.381470
0.010070,0.012451,0.998047,-0.118408,-0.782013,0.000000,-0.385284
0.010217,0.009644,0.995117,-0.119873,2.349854,0.392914,-1.529694
0.010364,0.010498,0.999390,-0.122681,0.000000,-0.396729,0.381470
0.010511,0.011841,1.002319,-0.121460,-1.174927,0.000000,0.000000
0.010657,0.010498,0.998535,-0.124146,-0.782013,0.392914,-0.385284
0.010804,0.014404,1.000366,-0.119995,1.174927,0.392914,-1.529694
0.010951,0.013916,1.001587,-0.116333,-1.174927,-0.396729,-0.385284
0.011098,0.015991,0.993164,-0.119141,1.174927,0.000000,1.525879
0.011246,0.018555,0.997070,-0.124878,0.782013,-2.368927,-1.529694
0.011485,0.014282,0.995850,-0.118042,2.349854,-0.396729,0.762939
0.011685,0.020874,1.002686,-0.119019,-3.913879,1.182556,-0.385284
0.011833,0.022705,1.000366,-0.124512,3.131866,-2.761841,-2.292633
0.011980,0.016235,1.001587,-0.125122,-1.956940,1.968384,0.000000
0.012127,0.009399,0.995361,-0.120361,1.174927,-0.396729,0.381470
0.012274,0.012817,0.995117,-0.120117,0.782013,2.365112,0.381470
0.012421,0.016846,1.000000,-0.118042,-0.782013,-2.368927,-0.766754
0.012568,0.011841,1.001221,-0.115112,0.000000,-1.579285,-0.766754
0.012715,0.012817,1.001465,-0.119263,-1.564026,1.575470,0.381470
0.012861,0.015137,0.995728,-0.122314,1.956940,-1.972198,-3.055573
0.013009,0.013306,0.996704,-0.120605,-1.564026,0.785828,1.525879
0.013156,0.014893,0.999023,-0.120728,-0.392914,0.785828,-1.148224
0.013302,0.013794,0.996826,-0.124878,-0.392914,-0.789642,0.381470
0.013449,0.012207,0.994751,-0.122192,2.349854,2.365112,-1.529694
0.013596,0.010132,0.996704,-0.118896,-0.782013,-5.126953,0.762939
0.013743,0.013550,1.002075,-0.116089,-1.174927,3.150940,0.000000
0.013890,0.020020,1.001343,-0.114502,-0.782013,-0.789642,-1.911163
0.014037,0.018066,0.998657,-0.118042,0.392914,-0.396729,0.381470
0.014184,0.018066,0.999878,-0.118530,-0.392914,1.968384,-0.385284
0.014331,0.016602,0.995728,-0.118042,3.131866,-3.944397,-3.437042
0.014479,0.016968,0.997070,-0.116821,-2.738953,3.547668,4.196167
0.014625,0.010742,0.999512,-0.117798,3.520966,-1.972198,-4.199982
0.014772,0.014404,0.999023,-0.117676,-3.520966,0.785828,3.433228
0.014919,0.016846,0.998657,-0.112061,0.782013,-1.579285,-3.437042
0.015066,0.015015,0.999512,-0.115723,-0.782013,0.392914,1.144409
0.015213,0.019775,0.997681,-0.116089,1.174927,-1.579285,-1.911163
0.015360,0.011108,0.994995,-0.112427,-0.392914,2.758026,1.144409
0.015507,0.010254,0.993774,-0.120483,-0.782013,0.392914,0.000000
0.015654,0.016968,0.996704,-0.125244,2.349854,-3.551483,-2.292633
0.015801,0.012695,1.002808,-0.119629,0.000000,0.785828,0.381470
0.015947,0.013428,0.999268,-0.116943,-1.174927,0.785828,1.144409
0.016094,0.011230,1.001465,-0.117798,-1.564026,-0.789642,-1.148224
0.016241,0.012207,0.998535,-0.117310,0.782013,-1.186371,-2.674103
0.016389,0.018921,0.996338,-0.117920,0.392914,1.968384,1.525879
0.016535,0.017944,0.998047,-0.122192,-0.392914,-1.972198,-1.148224
0.016682,0.014160,0.997192,-0.125488,2.349854,-0.396729,-1.148224
0.016829,0.016235,0.997314,-0.120850,-1.564026,1.182556,1.525879
0.016976,0.019531,1.002197,-0.121948,-0.782013,-1.186371,0.000000
0.017123,0.018799,1.002441,-0.126099,1.956940,-1.579285,-3.055573
0.017270,0.024536,1.004150,-0.120239,-1.956940,1.968384,1.525879
0.017417,0.018555,0.999390,-0.115601,0.000000,-1.972198,-0.766754
0.017564,0.015747,0.994995,-0.124023,0.000000,1.968384,-0.385284
0.017711,0.015503,0.997681,-0.126099,1.956940,-0.396729,-0.766754
0.017858,0.016724,0.997437,-0.123779,-1.956940,-0.396729,0.381470
0.018005,0.012573,0.997925,-0.124878,3.913879,-3.551483,-3.437042
0.018152,0.009521,0.997681,-0.120117,-3.520966,4.730225,3.814697
0.018298,0.016235,0.992188,-0.119873,0.392914,-2.368927,-3.055573
0.018452,0.015137,0.997192,-0.121704,-1.174927,-0.789642,0.381470
0.018593,0.015015,1.008545,-0.120483,2.738953,0.785828,-1.148224
0.018739,0.011230,0.999756,-0.118530,-0.392914,0.000000,-0.766754
0.018945,0.010864,0.995850,-0.116943,0.392914,-1.579285,2.670288
0.019028,0.010864,0.993408,-0.116943,0.782013,1.575470,-3.818512
0.019180,0.013794,0.998413,-0.122314,-1.956940,-0.789642,3.814697
0.019327,0.016357,1.002075,-0.122925,1.564026,-0.789642,-3.437042
0.019474,0.014526,0.994751,-0.114624,-0.392914,-1.972198,-1.529694
0.019621,0.023926,0.996826,-0.114990,-1.956940,2.758026,2.288818
0.019768,0.020142,0.994995,-0.119263,0.392914,-0.396729,-1.529694
0.019915,0.015747,0.993042,-0.118774,1.174927,-0.396729,-0.766754
0.020062,0.016357,0.993896,-0.118286,0.392914,-0.396729,0.000000
0.020209,0.017090,0.995972,-0.119263,0.392914,0.000000,0.000000
0.020356,0.018799,0.996460,-0.119141,-0.782013,-0.396729,1.144409
0.020503,0.018311,0.997681,-0.123779,-0.392914,-1.972198,-2.292633
0.020650,0.016846,1.002808,-0.123047,-0.392914,1.968384,-0.766754
0.020797,0.018921,0.998657,-0.119507,0.392914,-1.186371,1.525879
0.020944,0.008057,0.996094,-0.119751,-0.782013,0.000000,-2.292633
0.021091,0.010986,0.992554,-0.117188,2.738953,0.392914,-0.766754
0.021238,0.014771,0.994141,-0.115479,-1.174927,-0.396729,1.144409
0.021384,0.013428,1.000488,-0.114868,0.000000,-0.396729,-0.766754
0.021532,0.014526,1.002075,-0.117310,-1.956940,-0.789642,-0.766754
0.021678,0.017090,1.001465,-0.115723,-1.564026,-0.396729,1.907349
0.021825,0.014160,0.997192,-0.115356,3.520966,-0.789642,-2.674103
0.021972,0.020508,0.992798,-0.115234,-1.564026,1.182556,0.000000
0.022119,0.027100,0.995117,-0.116333,1.174927,0.392914,-2.292633
0.022266,0.016724,1.001465,-0.119385,-0.392914,1.968384,2.670288
0.022461,0.017334,0.999512,-0.117310,0.392914,-3.551483,-2.292633
0.022559,0.014771,0.995239,-0.114746,-0.392914,1.182556,0.762939
0.022711,0.013184,0.996582,-0.119385,-1.174927,0.000000,-0.385284
0.022858,0.017456,1.000122,-0.122192,1.174927,-1.972198,-0.385284
0.023005,0.017456,1.004517,-0.124512,-2.349854,1.968384,-0.766754
0.023152,0.016113,1.003540,-0.129883,3.131866,-1.972198,-1.911163
0.023299,0.019287,0.998047,-0.123779,-0.782013,3.150940,1.144409
0.023446,0.007812,1.002686,-0.118286,0.782013,-2.368927,-0.766754
0.023592,0.009644,0.998657,-0.119629,0.000000,-1.579285,-1.148224
0.023739,0.014282,0.996338,-0.119263,-1.174927,0.785828,1.144409
0.023887,0.020752,0.998413,-0.121582,-1.564026,1.182556,-0.385284
0.024033,0.019531,0.991089,-0.121948,1.564026,-1.972198,-1.148224
0.024180,0.016357,0.992065,-0.122925,1.174927,1.182556,-1.148224
0.024327,0.017456,0.996094,-0.119263,-1.564026,1.575470,1.144409
0.024474,0.010132,0.999512,-0.116699,-0.392914,-2.368927,-1.148224
0.024621,0.013184,0.999023,-0.119629,3.131866,0.392914,-1.911163
0.024768,0.012329,1.000732,-0.118530,-3.520966,1.575470,3.051758
0.024915,0.022095,1.002808,-0.119507,3.131866,-4.337311,-3.818512
0.025062,0.017822,0.998657,-0.117920,-3.131866,3.547668,3.433228
0.025209,0.013550,1.000610,-0.120117,2.738953,-2.368927,-3.437042
0.025356,0.021851,1.001099,-0.120850,0.000000,1.182556,-0.766754
0.025503,0.017578,0.996338,-0.119507,-1.956940,1.575470,1.525879
0.025650,0.015869,0.989624,-0.117310,1.956940,-1.186371,-1.911163
0.025797,0.013306,0.992310,-0.117554,0.000000,-0.789642,1.525879
0.025944,0.011719,0.999512,-0.121704,-0.392914,0.000000,-1.911163
0.026091,0.012451,0.997925,-0.120850,-0.392914,-1.186371,0.000000
0.026238,0.020142,0.997681,-0.117676,0.782013,0.000000,-1.911163
0.026386,0.016235,0.998535,-0.115234,-0.782013,0.785828,0.381470
0.026532,0.012207,1.000977,-0.117065,0.000000,0.392914,-0.766754
0.026678,0.011475,0.997681,-0.120850,0.782013,-1.186371,0.000000
0.026825,0.006836,0.997437,-0.121582,0.392914,1.968384,-2.292633
0.026972,0.006226,0.994385,-0.116699,-0.782013,-3.154755,1.525879
0.027119,0.009277,0.996582,-0.113647,0.782013,1.182556,0.381470
0.027266,0.017334,1.005737,-0.116699,-1.564026,0.392914,0.381470
0.027413,0.018555,0.998657,-0.118774,2.738953,-0.789642,-2.292633
0.027560,0.012451,0.997559,-0.118896,-1.564026,1.575470,0.000000
0.027707,0.002930,1.004639,-0.119629,1.174927,-2.761841,-1.911163
0.027854,0.012695,1.003418,-0.119629,-1.564026,2.365112,1.525879
0.028002,0.020630,1.003418,-0.119263,-1.174927,0.000000,-0.385284
0.028148,0.018555,1.001221,-0.121948,1.174927,-0.789642,0.000000
0.028295,0.015381,0.995483,-0.122803,0.782013,-2.761841,-1.148224
0.028442,0.017456,0.994263,-0.125977,-1.564026,1.575470,0.381470
0.028589,0.020020,0.996216,-0.126709,0.782013,0.000000,-1.148224
0.028735,0.015625,1.001343,-0.121460,0.782013,0.785828,-0.385284
0.028883,0.020630,1.003540,-0.118164,-0.782013,-0.396729,-0.385284
0.029029,0.015015,0.993774,-0.117188,0.392914,-0.789642,-0.766754
0.029176,0.015259,0.988403,-0.116943,-1.956940,0.392914,1.907349
0.029323,0.014038,0.987549,-0.118042,2.349854,-1.972198,-2.674103
0.029470,0.010620,0.996704,-0.116089,-0.782013,-0.396729,0.000000
0.029617,0.012573,1.001343,-0.116333,-1.174927,0.785828,1.144409
0.029764,0.009521,0.997925,-0.123291,1.564026,0.392914,-1.529694
0.029911,0.011353,0.998901,-0.123169,-1.956940,0.785828,0.000000
0.030058,0.011841,1.002563,-0.121948,2.349854,-2.761841,0.381470
0.030205,0.015869,1.003296,-0.121094,-1.174927,1.575470,-2.292633
0.030352,0.017822,1.000244,-0.118286,0.000000,-0.396729,0.762939
0.030499,0.017700,1.001709,-0.118164,0.782013,-0.396729,-0.385284
0.030646,0.017822,0.998047,-0.118164,-0.392914,-1.579285,-1.148224
0.030793,0.013550,0.995239,-0.115723,0.392914,0.785828,0.381470
0.030940,0.015869,0.998291,-0.116211,-1.174927,1.182556,-0.766754
0.031087,0.024658,0.998535,-0.118774,2.738953,-1.579285,-1.529694
0.031234,0.023438,0.997070,-0.124634,-2.349854,1.575470,1.525879
0.031381,0.013428,0.989990,-0.118774,-0.392914,-1.972198,-2.292633
0.031528,0.013184,0.990356,-0.112061,0.782013,0.392914,0.000000
0.031675,0.013184,0.999023,-0.118286,-2.349854,0.785828,1.907349
0.031821,0.015259,0.994263,-0.119141,4.306793,-4.337311,-3.818512
0.031968,0.015381,0.996582,-0.120239,-0.782013,2.365112,1.525879
0.032116,0.011475,0.997192,-0.125366,-0.392914,-0.789642,-2.292633
0.032262,0.010498,0.991333,-0.123047,-1.564026,2.758026,0.381470
0.032409,0.012939,0.992676,-0.116089,1.564026,-3.154755,-0.766754
0.032557,0.014282,0.997925,-0.120361,-1.956940,1.182556,0.381470
0.032703,0.018677,0.996948,-0.120728,0.392914,0.000000,-0.766754
0.032850,0.020508,0.996704,-0.118164,1.956940,-3.944397,-1.148224
0.032997,0.017944,0.997925,-0.117188,-2.349854,6.305695,2.670288
0.033144,0.018066,0.994873,-0.115845,2.738953,-5.126953,-3.437042
0.033291,0.009888,0.998413,-0.119263,-0.782013,0.785828,0.000000
0.033438,0.010132,0.999146,-0.118042,-1.174927,0.785828,0.381470
0.033585,0.019531,1.000000,-0.116943,1.174927,-0.789642,-1.911163
0.033732,0.016479,1.003906,-0.117065,-2.349854,2.365112,1.907349
0.033879,0.010986,1.002075,-0.116943,1.564026,-4.734039,-1.529694
0.034026,0.009277,1.002197,-0.121216,0.392914,1.575470,-1.148224
0.034173,0.010620,0.999268,-0.119263,-1.174927,1.575470,1.144409
0.034320,0.011475,0.994629,-0.118164,3.131866,-2.368927,0.381470
0.034467,0.012451,1.000732,-0.121460,-1.564026,-0.396729,-4.199982
0.034614,0.014893,1.002075,-0.119873,-0.392914,1.968384,3.051758
0.034761,0.014526,1.000122,-0.118164,0.000000,-2.761841,-2.674103
0.034907,0.017212,0.999878,-0.119629,-1.174927,2.365112,1.144409
0.035054,0.012695,0.999268,-0.118896,0.782013,-1.186371,-1.148224
0.035201,0.009155,0.997803,-0.117554,0.392914,0.392914,-0.385284
0.035349,0.013672,0.993896,-0.122437,0.782013,0.000000,0.381470
0.035495,0.011841,0.994995,-0.119019,0.782013,-1.186371,-1.529694
0.035642,0.010254,0.994385,-0.116089,0.000000,0.785828,-1.529694
0.035789,0.007690,1.000000,-0.118164,-1.174927,-1.186371,1.525879
0.035936,0.010376,1.004517,-0.118896,-0.782013,1.182556,0.381470
0.036083,0.014771,1.003174,-0.118896,0.000000,-0.789642,-2.292633
0.036230,0.009155,1.000977,-0.121094,-1.174927,-1.186371,0.000000
0.036377,0.011841,0.998779,-0.121094,2.349854,2.365112,-0.766754
0.036524,0.016602,0.999146,-0.116577,0.000000,-0.789642,0.381470
0.036671,0.010132,1.001465,-0.116211,-0.392914,-1.186371,-2.674103
0.036818,0.012573,0.999268,-0.117310,1.564026,1.182556,1.144409
0.036965,0.018311,0.996460,-0.121094,-1.564026,-1.186371,-1.148224
0.037112,0.016724,1.001953,-0.120361,-0.782013,-0.396729,0.381470
0.037262,0.019409,1.003906,-0.123169,0.392914,-0.396729,-0.766754
0.037406,0.008545,1.002075,-0.118408,-0.392914,0.785828,0.762939
0.037553,0.011841,0.999023,-0.111084,1.956940,-1.579285,-2.674103
0.037700,0.019653,1.004028,-0.112305,0.782013,0.785828,0.762939
0.037846,0.019287,1.000977,-0.113403,-0.782013,0.785828,-1.911163
0.037993,0.015747,0.995361,-0.118896,-0.392914,-2.368927,0.381470
0.038140,0.010254,1.001831,-0.117432,-1.564026,1.182556,-0.385284
0.038287,0.014893,1.001465,-0.114624,0.782013,-1.186371,-1.148224
0.038435,0.013672,0.997192,-0.114136,-2.349854,0.000000,1.144409
0.038581,0.016846,0.999878,-0.116455,3.131866,0.392914,-3.818512
0.038728,0.020264,0.999634,-0.117188,-0.782013,-0.789642,3.433228
0.038875,0.019409,0.995483,-0.119019,-0.392914,1.968384,-2.292633
0.039022,0.013184,0.992065,-0.121338,2.349854,-1.579285,-0.385284
0.039169,0.015747,0.992188,-0.118164,-2.738953,-0.396729,1.144409
0.039316,0.018311,0.999512,-0.117188,0.000000,1.182556,-0.766754
0.039463,0.014282,0.997559,-0.121826,-0.782013,-1.972198,-0.766754
0.039610,0.018066,0.994019,-0.119995,0.000000,0.000000,-2.292633
0.039757,0.012695,0.997803,-0.117065,1.564026,0.000000,1.907349
0.039904,0.017700,1.000244,-0.117310,1.564026,-1.186371,-1.148224
0.040051,0.015625,0.998779,-0.118896,-1.174927,1.968384,-0.385284
0.040197,0.015259,1.001221,-0.117432,-1.564026,-1.186371,0.762939
0.040344,0.014038,0.999023,-0.115356,0.782013,-1.186371,-1.529694
0.040492,0.017090,0.996826,-0.119141,-2.349854,1.182556,-0.766754
0.040638,0.018066,1.001465,-0.120850,3.520966,-1.972198,0.762939
0.040785,0.012695,1.000244,-0.121582,-1.956940,0.392914,-1.529694
0.040932,0.016968,1.004028,-0.119507,0.392914,1.182556,0.381470
0.041079,0.010620,1.007324,-0.119751,1.956940,-2.368927,-0.385284
0.041226,0.013672,0.999756,-0.117554,-0.392914,0.392914,-1.911163
0.041373,0.018188,0.996338,-0.115723,-0.782013,1.182556,1.525879
0.041520,0.017212,0.997803,-0.114746,-1.174927,-1.579285,0.381470
0.041667,0.011719,1.003784,-0.122314,0.000000,0.785828,-1.529694
0.041814,0.015625,0.998535,-0.125854,1.174927,0.000000,0.000000
0.041961,0.018311,0.995728,-0.120728,-0.782013,0.785828,-0.766754
0.042108,0.009766,1.001587,-0.119263,1.564026,-2.368927,-2.292633
0.042255,0.011963,0.997437,-0.118164,-0.782013,-1.186371,1.907349
0.042402,0.018555,0.997314,-0.121094,-0.392914,2.758026,-0.385284
0.042550,0.014526,0.997925,-0.123169,0.000000,-2.368927,-1.911163
0.042696,0.014404,0.997681,-0.121948,-0.782013,0.000000,1.144409
0.042843,0.016846,0.995728,-0.122192,0.000000,1.968384,-0.385284
0.042990,0.015381,0.995605,-0.119629,0.000000,-0.789642,0.000000
0.043137,0.017822,1.001221,-0.116943,2.349854,-1.579285,-2.674103
0.043284,0.011719,0.999268,-0.121704,0.000000,0.785828,-0.766754
0.043431,0.012817,0.995361,-0.121826,-1.174927,0.000000,2.670288
0.043578,0.017578,0.994385,-0.122925,0.392914,-0.396729,-2.292633
0.043725,0.011108,0.999756,-0.121338,0.000000,-0.396729,0.000000
0.043872,0.010254,1.000366,-0.117798,-1.174927,-0.396729,0.000000
0.044019,0.016235,0.990967,-0.117676,0.392914,0.000000,0.000000
0.044165,0.013794,0.990356,-0.118042,1.174927,0.000000,-1.148224
0.044312,0.012573,0.992554,-0.118652,1.564026,-0.789642,-0.766754
0.044459,0.016235,0.995117,-0.121948,0.000000,0.392914,0.762939
0.044607,0.014526,0.995361,-0.120728,-1.564026,-0.789642,-0.766754
0.044753,0.011841,0.998535,-0.117798,0.392914,0.785828,0.000000
0.044900,0.013062,1.001343,-0.115234,-0.782013,0.392914,-0.766754
0.045047,0.015991,0.997559,-0.115356,1.174927,-0.396729,-1.529694
0.045194,0.012207,0.996460,-0.119507,-1.564026,-0.789642,1.907349
0.045341,0.015137,0.996948,-0.117554,1.956940,-0.396729,-3.437042
0.045488,0.012573,0.997437,-0.115723,-1.956940,1.182556,2.288818
0.045635,0.014160,0.997192,-0.114746,3.131866,-1.579285,-1.911163
0.045782,0.015503,0.999146,-0.118652,-3.131866,0.392914,-0.766754
0.045929,0.009888,1.004517,-0.117554,1.174927,0.000000,0.381470
0.046076,0.010864,1.007446,-0.117432,-1.564026,0.000000,0.381470
0.046223,0.016724,1.002930,-0.123169,1.174927,-0.396729,-1.148224
0.046370,0.018921,1.001587,-0.121948,1.564026,-0.396729,-0.766754
0.046517,0.021851,1.002441,-0.121460,-1.564026,0.785828,-1.148224
0.046663,0.024048,0.998779,-0.119873,1.174927,0.392914,1.144409
0.046810,0.018433,0.994873,-0.118530,0.782013,-2.761841,-2.292633
0.046957,0.009033,0.997070,-0.117432,-1.564026,0.785828,-0.385284
0.047104,0.011963,1.001953,-0.121460,-0.782013,0.785828,2.288818
0.047251,0.016113,0.997559,-0.120239,0.000000,-0.789642,-2.292633
0.047398,0.014282,0.998291,-0.116211,2.738953,-0.396729,-0.766754
0.047545,0.013794,1.003174,-0.120605,-1.174927,0.000000,-1.148224
0.047692,0.013916,1.009766,-0.120972,0.392914,0.392914,0.762939
0.047839,0.015625,1.003906,-0.117676,-1.174927,-1.186371,-0.766754
0.047986,0.013062,0.994751,-0.114990,1.956940,-1.579285,-1.529694
0.048133,0.017456,0.997925,-0.119751,-2.349854,2.758026,3.051758
0.048280,0.017456,0.998413,-0.119263,0.782013,-1.186371,-2.674103
0.048427,0.010864,0.998169,-0.121338,-0.782013,0.785828,0.381470
0.048574,0.008911,0.997559,-0.124878,1.564026,-0.396729,-0.385284
0.048721,0.012939,0.996460,-0.118652,0.392914,-1.579285,-2.292633
0.048868,0.015625,0.995605,-0.115234,-1.564026,-0.789642,-0.385284
0.049015,0.012695,0.999146,-0.117798,0.392914,1.575470,3.433228
0.049161,0.009155,1.005249,-0.117676,0.782013,-1.579285,-3.055573
0.049308,0.012451,1.004272,-0.119873,0.000000,-0.396729,-1.911163
0.049455,0.020142,0.999878,-0.119507,-0.392914,0.392914,3.051758
0.049602,0.022949,0.997192,-0.119019,-0.392914,1.182556,-1.148224
0.049749,0.013550,0.998779,-0.117798,2.738953,-1.186371,-1.911163
0.049896,0.013428,1.002563,-0.118042,-2.349854,0.000000,0.000000
0.050043,0.017334,1.000854,-0.119751,0.392914,-0.396729,1.144409
0.050190,0.016479,1.000732,-0.118530,1.174927,-0.396729,-3.437042
0.050337,0.017334,1.003540,-0.118774,-1.956940,0.000000,1.907349
0.050484,0.015503,0.995850,-0.115479,1.174927,-0.789642,-0.766754
0.050630,0.014648,0.993774,-0.113525,-1.564026,-0.396729,0.762939
0.050777,0.013550,1.000366,-0.116821,2.738953,1.182556,-1.911163
0.050924,0.009766,0.998657,-0.119507,-1.956940,-0.396729,1.525879
0.051071,0.011963,0.994141,-0.116821,1.564026,-0.789642,-2.292633
0.051218,0.017212,0.992798,-0.117432,-0.782013,-0.396729,0.000000
0.051365,0.013672,0.997925,-0.117065,-0.782013,-0.396729,0.000000
0.051512,0.010498,0.998047,-0.116211,0.782013,0.000000,-0.766754
0.051659,0.010864,0.999390,-0.115967,-0.782013,-0.396729,0.000000
0.051806,0.015991,1.000122,-0.117798,2.738953,1.182556,-0.766754
0.051953,0.017090,0.997070,-0.121216,-1.564026,-0.396729,-0.766754
0.052100,0.013428,0.998901,-0.121704,-0.392914,0.000000,0.381470
0.052247,0.014526,0.999390,-0.120850,1.564026,-1.579285,-2.292633
0.052394,0.013550,0.998413,-0.116699,-1.174927,0.785828,0.381470
0.052541,0.019043,0.996338,-0.118896,-1.174927,-1.186371,0.762939
0.052687,0.020386,0.993896,-0.121704,0.782013,-1.186371,-2.292633
0.052834,0.015869,0.997070,-0.118652,0.392914,1.968384,-0.385284
0.052981,0.013794,1.000854,-0.120850,0.392914,1.182556,1.525879
0.053128,0.020386,0.998779,-0.122192,0.000000,-3.944397,-2.292633
0.053275,0.016479,1.000854,-0.120605,0.392914,0.785828,0.381470
0.053422,0.009888,1.004883,-0.118530,-1.174927,1.182556,0.000000
0.053569,0.011475,1.001221,-0.117432,0.782013,-1.186371,0.381470
0.053716,0.010376,0.995850,-0.114990,-2.738953,-1.186371,-1.529694
0.053863,0.016235,0.993408,-0.116089,2.349854,0.785828,0.000000
0.054010,0.014893,0.997681,-0.119141,-0.782013,0.785828,-1.529694
0.054157,0.010986,0.997803,-0.121582,0.782013,-2.368927,0.381470
0.054304,0.012085,0.995972,-0.121582,0.782013,0.392914,-0.385284
0.054463,0.009399,0.998291,-0.115234,0.392914,0.392914,-1.911163
0.054599,0.008911,0.998901,-0.116821,-1.564026,0.000000,1.907349
0.054746,0.011597,1.000366,-0.123413,-1.564026,-0.396729,-1.529694
0.054892,0.010986,0.995117,-0.117188,2.349854,-1.972198,-0.766754
0.055039,0.016602,0.994019,-0.117676,-2.349854,1.182556,2.288818
0.055187,0.018188,0.997681,-0.119873,3.913879,0.000000,-3.055573
0.055333,0.012573,0.994141,-0.117065,-0.782013,-0.396729,0.000000
0.055480,0.013184,0.995850,-0.120483,0.000000,1.182556,0.762939
0.055627,0.015991,1.001465,-0.118896,-0.392914,-1.579285,-3.055573
0.055776,0.014648,0.997803,-0.114014,-0.392914,-0.396729,0.381470
0.055921,0.013550,0.996094,-0.116943,-0.782013,-1.579285,0.381470
0.056068,0.010132,1.003540,-0.121216,0.000000,0.392914,-0.385284
0.056215,0.008545,0.999268,-0.119629,0.000000,0.000000,-0.766754
0.056362,0.013550,0.993652,-0.119385,1.956940,1.968384,0.381470
0.056509,0.017944,0.998291,-0.117676,-1.564026,-0.396729,-0.766754
0.056655,0.013062,0.999634,-0.112061,1.956940,-0.789642,-1.911163
0.056803,0.017578,0.995483,-0.116821,-2.349854,0.392914,0.762939
0.056950,0.012573,0.995728,-0.117310,1.564026,-1.972198,-1.529694
0.057097,0.009644,0.996948,-0.117920,-1.956940,-0.789642,1.525879
0.057244,0.016235,0.993530,-0.117920,1.174927,1.575470,-1.911163
0.057391,0.013428,0.992310,-0.120117,1.174927,-1.579285,0.762939
0.057537,0.015503,0.995239,-0.123657,-3.131866,3.547668,0.381470
0.057685,0.016602,0.997437,-0.120972,3.913879,-2.761841,-1.911163
0.057831,0.013672,0.999023,-0.123779,-1.174927,1.575470,-0.766754
0.057978,0.023315,0.997192,-0.121338,-3.131866,-1.972198,0.381470
0.058125,0.020142,0.997681,-0.114746,1.956940,-0.789642,0.000000
0.058272,0.006836,1.000977,-0.114624,1.564026,-0.789642,-1.529694
0.058422,0.008789,0.995850,-0.118774,-0.782013,0.785828,-0.385284
0.058568,0.007324,0.996948,-0.121094,-0.392914,1.968384,0.381470
0.058714,0.015869,0.998535,-0.121826,1.174927,-1.186371,-1.148224
0.058861,0.007935,1.000610,-0.118286,0.782013,-0.396729,-0.385284
0.059008,0.017456,0.999268,-0.115356,-2.349854,-0.396729,-1.148224
0.059155,0.021362,0.995361,-0.114868,0.000000,0.392914,0.762939
0.059302,0.015747,1.000366,-0.113281,-1.174927,-1.579285,-1.148224
0.059449,0.021973,1.005371,-0.117554,1.564026,-1.579285,-0.385284
0.059596,0.017212,1.001709,-0.120483,0.392914,2.365112,1.525879
0.059738,0.017700,0.996460,-0.117798,0.782013,-1.186371,-1.911163
0.059890,0.011719,0.996704,-0.117676,3.520966,0.785828,-1.529694
0.060037,0.016724,0.996460,-0.122681,-4.695892,0.785828,1.525879
0.060183,0.015747,0.998047,-0.125244,0.000000,-0.789642,-0.385284
0.060331,0.018066,0.996216,-0.122070,0.782013,-1.972198,-2.292633
0.060477,0.016968,0.997070,-0.117554,-1.174927,0.392914,1.525879
0.060625,0.012207,0.994873,-0.115723,1.174927,-2.368927,-1.529694
0.060771,0.017578,0.990601,-0.117188,1.174927,1.182556,-1.148224
0.060918,0.019531,0.999023,-0.115356,-1.564026,2.758026,3.051758
0.061065,0.016602,1.000977,-0.118042,2.738953,-3.551483,-5.344391
0.061212,0.011597,0.999756,-0.117798,-2.349854,2.758026,1.525879
0.061359,0.013916,1.002563,-0.119751,-2.349854,0.000000,0.762939
0.061506,0.008179,1.000488,-0.120605,1.564026,-3.551483,-1.529694
0.061653,0.011963,1.001465,-0.119873,1.564026,3.150940,0.000000
0.061800,0.014648,0.998901,-0.120972,-0.782013,-3.551483,-1.529694
0.061947,0.010254,0.996216,-0.117310,0.782013,2.758026,-0.385284
0.062094,0.015503,0.998535,-0.114380,-0.392914,-1.186371,-0.766754
0.062241,0.018677,1.000244,-0.119995,0.000000,1.968384,1.525879
0.062388,0.015503,0.994141,-0.125488,-1.564026,-1.579285,-2.292633
0.062535,0.015381,0.994873,-0.122314,-1.174927,-0.789642,0.762939
0.062682,0.015015,1.000854,-0.119263,0.782013,-0.789642,-1.148224
0.062829,0.009888,0.993042,-0.117432,2.738953,-1.579285,0.000000
0.062976,0.009399,0.991821,-0.117554,-1.564026,2.758026,0.762939
0.063122,0.016602,0.991577,-0.117432,1.564026,0.000000,-3.055573
0.063269,0.020996,0.994873,-0.117798,0.000000,-1.579285,0.381470
0.063416,0.014160,0.996948,-0.119019,-1.174927,1.968384,-0.766754
0.063563,0.018188,0.997803,-0.117065,1.174927,-1.186371,0.381470
0.063710,0.020386,1.001343,-0.119385,-0.782013,0.000000,-1.148224
0.063857,0.016968,0.999634,-0.120728,-1.174927,0.000000,0.000000
0.064004,0.010742,1.001953,-0.117310,-1.174927,0.392914,1.144409
0.064151,0.008667,0.996948,-0.115112,4.695892,-1.972198,-2.292633
0.064298,0.013794,0.993652,-0.114990,-1.564026,2.365112,1.525879
0.064445,0.013550,0.999023,-0.119629,0.782013,-1.579285,-3.437042
0.064592,0.016235,1.002075,-0.122803,-1.564026,1.182556,2.670288
0.064739,0.016357,1.005005,-0.121704,0.000000,-0.789642,-2.292633
0.064886,0.012817,1.001953,-0.118408,-1.174927,1.182556,1.144409
0.065033,0.015869,0.995605,-0.121338,2.349854,-3.154755,-1.911163
0.065180,0.014648,0.998169,-0.120605,-1.174927,1.575470,0.762939
0.065327,0.012817,0.988647,-0.118164,2.349854,-1.972198,-2.292633
0.065474,0.016113,0.992432,-0.117188,0.392914,1.968384,0.000000
0.065621,0.012085,1.004395,-0.114746,-2.738953,-0.396729,0.381470
0.065768,0.013062,0.999634,-0.117676,0.000000,1.575470,-1.148224
0.065914,0.016724,0.997314,-0.119141,-0.782013,-1.972198,1.144409
0.066061,0.014648,0.998657,-0.117065,0.782013,0.000000,-2.674103
0.066208,0.016357,1.000122,-0.118774,0.782013,1.575470,0.381470
0.066355,0.014893,0.999512,-0.123657,0.392914,-3.551483,-0.385284
0.066502,0.013062,0.998047,-0.121338,1.174927,1.575470,-0.385284
0.066649,0.014648,0.996216,-0.122192,-1.174927,-0.789642,0.762939
0.066796,0.013916,0.998535,-0.125977,-0.782013,0.000000,-2.674103
0.066943,0.015259,0.998779,-0.119263,-1.174927,1.968384,0.000000
0.067090,0.013550,0.998291,-0.118530,1.564026,-1.186371,1.525879
0.067237,0.009399,1.000732,-0.121216,-0.782013,1.182556,-1.529694
0.067384,0.009277,1.000732,-0.116699,1.956940,-3.551483,0.000000
0.067531,0.011353,0.997192,-0.117920,-0.392914,1.182556,-0.766754
0.067678,0.018921,0.995972,-0.116211,0.392914,0.000000,-1.529694
0.067825,0.017822,0.995483,-0.117676,-0.392914,-0.789642,0.762939
0.067972,0.016357,0.997803,-0.119507,-1.564026,0.000000,-0.766754
0.068119,0.017700,1.001953,-0.117188,-0.392914,0.785828,1.144409
0.068266,0.017090,0.998657,-0.119751,1.564026,-2.368927,-1.148224
0.068412,0.011353,0.994629,-0.118896,-0.392914,2.758026,-0.385284
0.068560,0.011597,1.000366,-0.114746,0.392914,-1.579285,-1.911163
0.068707,0.019897,0.998657,-0.122681,-0.782013,0.000000,1.144409
0.068853,0.015991,0.994263,-0.125610,0.392914,-1.579285,-1.148224
0.069000,0.015137,0.998779,-0.119751,-0.782013,1.575470,-1.148224
0.069147,0.014404,0.995850,-0.119751,-1.174927,-0.396729,0.762939
0.069295,0.012207,0.993774,-0.114990,0.782013,-0.789642,0.000000
0.069441,0.014648,0.998535,-0.112549,0.000000,-0.396729,-1.911163
0.069588,0.015259,1.000488,-0.114746,0.782013,1.182556,1.144409
0.069735,0.015747,0.995361,-0.115479,0.000000,-0.789642,-0.766754
0.069882,0.019043,0.997559,-0.113770,0.392914,-0.789642,-1.911163
0.070029,0.017212,1.007080,-0.115967,1.174927,-1.186371,-0.766754
0.070176,0.015259,1.000122,-0.120605,-3.131866,0.000000,2.670288
0.070323,0.017212,0.994019,-0.123779,-0.392914,1.182556,-2.674103
0.070470,0.010620,0.993896,-0.121948,3.131866,-0.396729,-1.148224
0.070617,0.010498,0.990356,-0.118286,-1.174927,-0.789642,1.907349
0.070764,0.014648,0.996216,-0.119629,-0.392914,2.365112,0.000000
0.070911,0.015259,1.001587,-0.119263,0.392914,-2.761841,-1.529694
0.071057,0.015015,0.999878,-0.115234,0.392914,0.000000,-1.148224
0.071205,0.011230,0.995117,-0.116821,-1.174927,-1.579285,1.525879
0.071352,0.012329,0.993042,-0.117065,-0.392914,0.785828,-3.437042
0.071498,0.013550,0.997070,-0.117676,-1.564026,1.182556,1.907349
0.071645,0.012939,0.999390,-0.122681,2.349854,-1.579285,-1.148224
0.071792,0.008301,0.996582,-0.117432,1.174927,0.392914,-0.385284
0.071939,0.010498,1.000122,-0.119019,-0.782013,1.182556,1.144409
0.072086,0.015747,0.995605,-0.119629,1.564026,-3.551483,-2.292633
0.072233,0.013672,0.987915,-0.117920,-2.738953,2.758026,0.381470
0.072381,0.010864,0.999512,-0.120850,1.564026,-1.972198,0.000000
0.072527,0.013916,1.003906,-0.123413,-1.564026,2.365112,-1.148224
0.072674,0.017090,0.997803,-0.120361,0.392914,-2.368927,-0.766754
0.072821,0.013428,0.996826,-0.115479,0.392914,1.575470,1.907349
0.072968,0.016235,0.998657,-0.121948,1.174927,-1.579285,-0.766754
0.073115,0.018066,0.998413,-0.125244,1.174927,0.392914,-3.055573
0.073262,0.017334,0.999268,-0.123779,0.000000,-0.396729,1.525879
0.073409,0.012695,1.003784,-0.120605,-3.913879,1.575470,1.144409
0.073556,0.015503,1.002075,-0.118530,2.349854,-2.368927,-1.911163
0.073703,0.014526,0.997314,-0.118042,-1.174927,0.000000,-0.766754
0.073850,0.011475,0.996338,-0.121460,1.564026,-0.789642,-1.911163
0.073997,0.018921,0.993164,-0.121582,-0.392914,3.150940,2.288818
0.074144,0.017822,0.992432,-0.118774,0.392914,-2.761841,-1.148224
0.074293,0.017090,1.000122,-0.120483,0.782013,1.182556,-1.148224
0.074438,0.017090,1.000122,-0.118164,0.782013,-1.186371,0.762939
0.074585,0.012817,0.996338,-0.115356,-3.131866,-0.789642,-1.529694
0.074732,0.010864,1.000244,-0.118774,0.782013,1.968384,0.381470
0.074878,0.012451,0.999023,-0.119629,-0.392914,-1.579285,1.144409
0.075025,0.010986,0.993286,-0.116821,1.564026,1.182556,-2.674103
0.075172,0.018066,0.997070,-0.115356,-0.392914,-1.186371,0.000000
0.075319,0.018311,1.002319,-0.113525,2.349854,-1.186371,-0.385284
0.075467,0.016479,1.002075,-0.115723,-2.738953,1.575470,0.762939
0.075617,0.016235,0.998657,-0.119629,1.174927,-2.761841,-2.292633
0.075977,0.021851,0.996094,-0.119873,-0.782013,0.000000,-1.022339
0.076053,0.021851,0.995728,-0.120972,-0.782013,0.000000,-1.529694
0.076201,0.013428,0.991333,-0.117310,1.956940,-1.186371,-1.148224
0.076348,0.013184,0.998291,-0.117310,-0.782013,1.575470,1.525879
0.076495,0.018188,1.006592,-0.117920,0.000000,-1.186371,-1.148224
0.076642,0.010742,1.002808,-0.116211,-0.782013,0.785828,-1.911163
0.076788,0.012573,0.998657,-0.118408,-1.174927,-2.761841,0.762939
0.076935,0.021240,0.998779,-0.121216,0.782013,2.758026,-0.766754
0.077105,0.019653,0.995117,-0.118530,0.782013,-2.761841,-1.529694
0.077231,0.015137,0.995117,-0.120239,-1.174927,1.968384,1.907349
0.077377,0.009155,1.000366,-0.116211,0.392914,1.968384,-1.529694
0.077523,0.018311,0.994019,-0.115601,1.956940,-3.944397,0.000000
0.077671,0.014282,0.992188,-0.117920,-1.174927,0.392914,-1.529694
0.077817,0.015503,0.998535,-0.116821,0.000000,0.785828,0.762939
0.077964,0.016968,1.001953,-0.123779,-1.564026,-1.579285,-2.674103
0.078111,0.014648,0.996582,-0.124390,0.000000,0.000000,2.288818
0.078258,0.012207,0.998047,-0.123169,0.392914,1.968384,-1.148224
0.078405,0.014648,1.000854,-0.121948,0.000000,-1.579285,-1.529694
0.078552,0.023804,0.994873,-0.124634,1.174927,1.575470,1.144409
0.078699,0.010620,0.996338,-0.124390,2.738953,-2.368927,-2.674103
0.078846,0.008423,0.997314,-0.120361,-3.520966,1.575470,1.525879
0.078993,0.010742,0.997192,-0.120117,0.782013,-1.972198,-0.385284
0.079140,0.014893,0.996948,-0.121582,-0.782013,-1.186371,-2.292633
0.079287,0.010132,0.995239,-0.120850,-0.392914,0.000000,0.762939
0.079434,0.014160,1.000732,-0.118042,1.956940,0.785828,-1.529694
0.079581,0.013306,0.998779,-0.114380,0.392914,0.392914,1.525879
0.079728,0.008423,0.995605,-0.114990,-1.564026,0.000000,-1.148224
0.079875,0.012573,0.993896,-0.114258,1.956940,-0.789642,-0.385284
0.080022,0.011597,0.996338,-0.117432,-1.564026,-0.789642,-1.529694
0.080168,0.010376,0.999023,-0.117432,-0.782013,0.785828,0.381470
0.080315,0.013062,1.001465,-0.114990,0.000000,-1.972198,0.762939
0.080463,0.014282,1.005371,-0.117188,0.000000,1.575470,-2.292633
0.080609,0.008423,0.999268,-0.115479,2.738953,-1.186371,0.381470
0.080757,0.013306,0.994751,-0.115601,-1.564026,1.182556,0.762939
0.080903,0.021118,0.995361,-0.115112,1.564026,-0.789642,-1.911163
0.081050,0.013306,0.998535,-0.119873,0.000000,-0.789642,-0.385284
0.081197,0.010376,0.998413,-0.117676,-3.131866,1.182556,1.144409
0.081344,0.017700,0.998535,-0.115601,3.520966,-2.761841,-1.529694
0.081491,0.018066,0.995361,-0.116577,-3.131866,1.182556,0.000000
0.081638,0.013428,0.993652,-0.115356,0.392914,0.392914,-0.385284
0.081785,0.012695,0.998901,-0.115601,1.956940,-1.186371,-0.766754
0.081932,0.016846,0.996826,-0.117920,-0.782013,0.785828,2.288818
0.082079,0.013184,0.991821,-0.119629,-0.392914,-1.579285,-2.674103
0.082226,0.013550,0.993042,-0.118164,0.392914,1.968384,-1.529694
0.082373,0.010132,0.994507,-0.120361,0.000000,-3.944397,0.762939
0.082521,0.009277,1.000244,-0.121460,-0.782013,3.150940,-1.529694
0.082666,0.014526,0.998657,-0.123413,-2.738953,-1.579285,1.144409
0.082814,0.016357,0.994873,-0.119995,3.131866,0.785828,-2.292633
0.082961,0.008789,0.994873,-0.117065,-0.392914,-0.396729,1.525879
0.083107,0.007080,0.996948,-0.121948,1.564026,-1.972198,-1.911163
0.083254,0.014160,1.000244,-0.123169,0.000000,1.968384,-1.148224
0.083401,0.014038,1.002686,-0.120117,-0.392914,-0.789642,1.907349
0.083548,0.013428,1.002686,-0.117310,-0.782013,-1.579285,-2.292633
0.083695,0.013062,1.002319,-0.117920,-2.738953,1.968384,1.525879
0.083842,0.008301,1.000000,-0.119385,3.131866,-1.972198,-1.148224
0.083989,0.014404,1.000366,-0.116943,-0.392914,0.392914,-1.529694
0.084136,0.017822,1.001953,-0.117432,0.782013,1.182556,1.525879
0.084283,0.010986,0.996582,-0.119995,-1.174927,-1.186371,-2.674103
0.084430,0.014282,1.001953,-0.119873,0.392914,0.000000,1.144409
0.084577,0.015747,1.002197,-0.116455,0.000000,-2.761841,-1.148224
0.084724,0.010132,0.996460,-0.114136,-1.956940,1.968384,0.000000
0.084871,0.010742,0.994873,-0.117920,1.174927,-0.789642,-0.766754
0.085018,0.018188,0.995605,-0.121826,0.782013,0.785828,-1.148224
0.085165,0.015747,0.995239,-0.120361,-0.392914,0.785828,2.288818
0.085312,0.013428,1.001831,-0.118652,1.956940,-1.186371,-3.055573
0.085458,0.015503,0.997681,-0.117310,-1.564026,0.000000,1.907349
0.085606,0.013794,0.994019,-0.118652,0.392914,-0.396729,-1.529694
0.085752,0.011841,0.998169,-0.119751,-1.174927,0.785828,-1.148224
0.085899,0.014893,0.992554,-0.120361,1.564026,-1.579285,0.000000
0.086047,0.014526,0.985962,-0.118652,-0.782013,0.000000,1.144409
0.086193,0.013306,0.993286,-0.119019,0.392914,0.000000,-3.055573
0.086340,0.015259,0.996094,-0.122070,0.782013,-0.789642,0.381470
0.086487,0.012817,0.994629,-0.120239,1.956940,0.000000,-0.766754
0.086634,0.020142,1.000244,-0.119385,-3.520966,1.575470,1.144409
0.086781,0.017700,0.994385,-0.117676,0.782013,-1.186371,-1.911163
0.086928,0.010376,0.990479,-0.119873,-0.392914,-1.972198,1.144409
0.087075,0.016602,0.997192,-0.119873,0.782013,-0.789642,-2.292633
0.087222,0.009033,0.998657,-0.114990,-1.174927,2.758026,0.381470
0.087369,0.009155,0.998413,-0.113037,1.174927,-2.368927,-0.385284
0.087516,0.015381,0.998169,-0.118408,0.392914,0.392914,0.000000
0.087663,0.010620,0.995483,-0.116211,1.564026,0.000000,-1.148224
0.087810,0.010742,0.998169,-0.113770,-3.520966,0.000000,0.381470
0.087957,0.005737,0.999634,-0.117065,1.174927,-1.579285,-0.385284
0.088104,0.009521,1.004639,-0.114746,-0.782013,0.785828,-0.385284
0.088251,0.014404,1.003418,-0.116577,0.782013,0.392914,-1.148224
0.088398,0.009277,0.999146,-0.119629,-0.392914,-0.789642,0.000000
0.088544,0.012817,0.996826,-0.120361,1.174927,0.000000,-1.529694
0.088691,0.012573,0.994629,-0.119995,-1.174927,-0.789642,-0.385284
0.088839,0.016968,1.000244,-0.121216,1.174927,0.392914,0.762939
0.088986,0.014160,1.000122,-0.121094,-1.174927,0.392914,0.000000
0.089132,0.013062,0.995972,-0.115845,0.392914,-1.186371,-1.911163
0.089279,0.016357,0.997559,-0.114014,-1.174927,-0.396729,0.762939
0.089426,0.015137,0.991821,-0.121216,0.782013,0.392914,-0.385284
0.089573,0.019043,0.995972,-0.119873,0.392914,1.182556,0.000000
0.089720,0.012939,0.995728,-0.120605,0.392914,-3.551483,-1.148224
0.089867,0.012573,0.991333,-0.122437,-0.782013,3.547668,0.381470
0.090014,0.014526,0.998657,-0.118774,-0.782013,-1.972198,-1.148224
0.090161,0.009644,1.003662,-0.118774,0.000000,0.392914,-0.385284
0.090308,0.009399,1.000000,-0.116211,0.782013,-2.761841,0.000000
0.090455,0.019043,0.995361,-0.117065,-0.392914,1.182556,-1.911163
0.090602,0.019531,0.994995,-0.116943,0.782013,-1.186371,1.907349
0.090749,0.014526,0.994019,-0.115601,0.782013,1.968384,-0.766754
0.090896,0.016479,0.996338,-0.115845,-1.174927,-1.579285,0.000000
0.091043,0.011230,1.002319,-0.115356,0.000000,-1.186371,0.381470
0.091190,0.009155,0.999146,-0.115967,-1.174927,1.968384,-1.529694
0.091336,0.013550,0.988647,-0.118164,-0.782013,-1.186371,0.381470
0.091484,0.017822,0.994263,-0.118530,1.174927,0.392914,-1.911163
0.091630,0.022339,1.002075,-0.115234,1.174927,-1.972198,-0.385284
0.091777,0.012451,1.001343,-0.113892,-0.392914,0.785828,-0.766754
0.091925,0.009644,0.997192,-0.113770,0.782013,0.392914,1.144409
0.092071,0.012695,1.001953,-0.118042,-0.392914,-0.396729,-0.385284
0.092218,0.012939,0.997192,-0.118530,-1.174927,-0.396729,-0.385284
0.092365,0.013916,1.001221,-0.116211,-0.782013,-0.396729,-1.148224
0.092512,0.013062,1.001099,-0.117310,1.956940,0.392914,0.762939
0.092659,0.015381,0.997314,-0.116455,-0.782013,0.785828,-1.529694
0.092806,0.015625,0.998047,-0.116821,1.174927,-2.368927,-0.385284
0.092959,0.018066,0.993774,-0.113403,0.782013,2.365112,0.381470
0.093101,0.017212,1.002197,-0.116089,0.000000,-1.579285,-1.148224
0.093247,0.016602,1.003784,-0.124390,-1.956940,-0.789642,0.762939
0.093394,0.014404,1.001709,-0.122681,1.564026,0.392914,-2.292633
0.093541,0.013672,0.995605,-0.116821,-1.564026,1.182556,1.144409
0.093688,0.012573,0.993896,-0.116821,1.564026,-1.579285,-0.385284
0.093835,0.011353,0.998901,-0.118530,1.174927,0.000000,-1.911163
0.093982,0.009033,0.999390,-0.118408,0.000000,0.785828,0.762939
0.094129,0.011841,0.995972,-0.123047,-1.174927,-0.789642,-1.529694
0.094276,0.015137,0.996216,-0.124756,0.392914,-0.789642,-0.385284
0.094423,0.010376,0.993530,-0.120483,-1.956940,1.968384,1.144409
0.094570,0.014526,0.997314,-0.117920,2.349854,-2.761841,-1.911163
0.094716,0.013550,0.998291,-0.114502,-1.956940,1.968384,0.000000
0.094863,0.015503,0.993652,-0.116333,2.349854,-1.579285,-0.766754
0.095011,0.016724,0.998291,-0.117920,-1.564026,1.182556,0.762939
0.095157,0.014404,0.998535,-0.121826,2.349854,-1.579285,-1.911163
0.095304,0.019409,0.993896,-0.123901,0.392914,0.000000,-0.385284
0.095451,0.013794,0.997437,-0.117676,-3.131866,0.392914,0.762939
0.095598,0.014404,1.002075,-0.118896,0.392914,-0.789642,-0.766754
0.095745,0.016479,0.998535,-0.119629,-1.174927,1.182556,0.381470
0.095892,0.012329,0.998901,-0.116821,2.738953,-2.368927,-1.911163
0.096039,0.013916,1.000488,-0.120239,0.000000,1.182556,-0.385284
0.096186,0.011719,0.997925,-0.121094,0.782013,-0.396729,-0.385284
0.096333,0.018799,1.001587,-0.115479,-0.782013,-0.396729,0.762939
0.096480,0.017578,0.997803,-0.117432,-0.782013,-1.579285,-2.292633
0.096627,0.014038,0.997437,-0.121704,0.782013,1.575470,0.762939
0.096774,0.009277,0.998657,-0.118286,-0.782013,0.785828,0.381470
0.096920,0.013916,0.996338,-0.109741,-1.174927,-0.789642,-1.148224
0.097068,0.012085,1.002686,-0.108398,2.738953,-1.972198,-0.385284
0.097215,0.012573,0.998291,-0.114136,-1.956940,0.785828,-1.529694
0.097362,0.019043,0.996948,-0.116821,2.349854,0.785828,1.525879
0.097509,0.012451,0.995361,-0.120605,-0.782013,-1.579285,-2.674103
0.097655,0.020264,0.999268,-0.121338,-1.564026,0.785828,1.525879
0.097802,0.017212,1.001709,-0.114990,-0.392914,-1.579285,-0.385284
0.097949,0.018066,0.993896,-0.117920,0.392914,0.392914,-1.911163
0.098096,0.012695,1.000366,-0.121826,0.000000,0.000000,1.525879
0.098243,0.010986,1.002930,-0.122559,0.782013,1.575470,-1.148224
0.098391,0.020142,1.004639,-0.121582,1.564026,-2.761841,-0.766754
0.098537,0.011963,1.008057,-0.118774,-1.174927,0.000000,-0.766754
0.098684,0.013062,1.004761,-0.119385,1.174927,0.392914,0.381470
0.098831,0.018188,1.000732,-0.119385,-0.392914,0.392914,-0.385284
0.098978,0.011475,0.999023,-0.116943,-0.782013,-1.186371,-1.911163
0.099125,0.016479,1.004028,-0.118408,-0.392914,0.785828,0.762939
0.099272,0.015503,0.996704,-0.116699,1.174927,-0.396729,0.000000
0.099419,0.015625,0.994873,-0.113892,1.564026,0.000000,-1.529694
0.099566,0.017334,1.000244,-0.117310,-3.131866,-0.396729,1.907349
0.099713,0.014038,0.997681,-0.113892,2.738953,1.182556,-4.199982
0.099860,0.015259,0.998535,-0.114502,-1.564026,-3.551483,3.051758
0.100006,0.018555,0.995972,-0.117065,0.000000,2.365112,-2.674103
0.100153,0.017090,0.995483,-0.115479,1.174927,-1.579285,-0.385284
0.100300,0.009277,0.998779,-0.119507,-1.956940,1.575470,0.762939
0.100447,0.006470,0.992310,-0.117920,1.564026,-1.579285,-0.385284
0.100594,0.012939,0.993652,-0.117310,-0.392914,1.182556,-1.529694
0.100741,0.013184,1.004272,-0.123901,0.000000,-1.186371,0.000000
0.100888,0.008545,1.001099,-0.120117,0.000000,0.000000,-1.529694
0.101035,0.012817,1.001343,-0.119141,-0.392914,0.000000,1.144409
0.101182,0.013306,0.998657,-0.120239,-1.564026,-1.186371,0.381470
0.101329,0.009521,0.995972,-0.114746,1.956940,0.392914,-2.292633
0.101510,0.018433,0.996826,-0.114502,-2.349854,2.758026,2.670288
0.101850,0.013550,0.997559,-0.116821,-1.564026,-0.789642,0.381470
0.102062,0.010742,1.002197,-0.120972,1.174927,0.000000,-1.148224
0.102211,0.015625,1.004883,-0.122925,0.392914,-1.579285,-1.911163
0.102358,0.019409,0.996948,-0.117798,-1.564026,0.392914,2.288818
0.102505,0.014526,0.999634,-0.109619,-0.392914,0.392914,-1.911163
0.102652,0.012207,0.996460,-0.110596,0.392914,0.785828,1.144409
0.102799,0.014648,0.999146,-0.116333,0.392914,0.392914,-0.766754
0.103057,0.012451,0.995728,-0.118530,0.000000,-0.396729,-1.529694
0.103238,0.015625,1.000244,-0.120850,-0.782013,-1.972198,-1.148224
0.103387,0.010254,1.001953,-0.120850,-0.392914,1.575470,1.144409
0.103533,0.018066,0.999390,-0.119141,0.000000,-1.579285,0.381470
0.103680,0.017456,0.994507,-0.117798,0.782013,-0.396729,-3.055573
0.103827,0.010498,0.989746,-0.114868,1.956940,1.575470,0.000000
0.103974,0.016235,0.995850,-0.118286,-1.564026,0.392914,2.288818
0.104121,0.014893,0.997925,-0.120972,1.174927,0.000000,-3.055573
0.104268,0.018066,0.996948,-0.120483,-2.349854,-1.186371,1.144409
0.104415,0.012329,1.003052,-0.121094,1.564026,0.000000,-1.148224
0.104562,0.014282,0.996704,-0.121094,-0.392914,-1.186371,-1.911163
0.104709,0.017212,0.992676,-0.116821,-2.349854,0.785828,0.762939
0.104856,0.019775,0.997314,-0.117065,2.349854,-1.186371,0.381470
0.105003,0.019653,0.996216,-0.118286,0.392914,2.365112,-0.766754
0.105150,0.015503,0.998169,-0.115967,-0.392914,0.000000,-1.529694
0.105297,0.015381,0.998657,-0.116699,0.000000,-2.368927,0.381470
0.105444,0.015015,0.994873,-0.117065,0.782013,0.000000,1.144409
0.105591,0.016602,0.999878,-0.116577,-1.564026,-0.396729,-2.292633
0.105737,0.015503,1.003418,-0.113647,-2.349854,1.575470,1.144409
0.105884,0.015991,0.998047,-0.112183,4.306793,-3.154755,-3.055573
0.106031,0.018188,0.992798,-0.116333,-1.956940,2.758026,0.762939
0.106178,0.016846,0.996582,-0.119995,0.782013,-1.186371,-0.766754
0.106325,0.011108,0.999023,-0.118042,-0.392914,1.968384,0.381470
0.106472,0.010986,1.001465,-0.119385,-0.392914,-1.579285,-0.385284
0.106619,0.014160,0.998169,-0.120483,-0.782013,-1.186371,-1.148224
0.106766,0.015869,0.998657,-0.114258,2.349854,-2.368927,0.381470
0.106913,0.019409,0.999146,-0.117554,-2.738953,3.150940,-0.766754
0.107060,0.022705,0.997192,-0.123413,1.564026,-3.154755,-0.766754
0.107207,0.020142,1.002686,-0.122803,0.000000,3.150940,0.762939
0.107354,0.015015,1.001465,-0.121826,-1.564026,0.000000,0.000000
0.107501,0.010254,0.999023,-0.118408,3.131866,-1.579285,-3.437042
0.107648,0.015259,0.998657,-0.116333,-2.738953,0.392914,1.525879
0.107795,0.015991,1.000488,-0.116943,0.782013,0.392914,0.000000
0.107942,0.016479,0.997925,-0.119873,0.000000,-2.761841,-0.766754
0.108089,0.017334,1.001953,-0.120605,1.174927,1.575470,0.000000
0.108236,0.020142,1.001831,-0.118896,1.174927,-1.972198,-1.529694
0.108383,0.018433,0.997681,-0.121094,-3.131866,1.575470,0.381470
0.108529,0.012573,0.999634,-0.117920,0.782013,0.785828,-0.385284
0.108677,0.017090,1.001831,-0.118774,-0.782013,0.785828,0.000000
0.108823,0.012451,0.998047,-0.121094,1.174927,-2.761841,-3.055573
0.108970,0.013916,0.991333,-0.121460,-0.392914,-0.396729,2.670288
0.109117,0.014893,0.993652,-0.123413,0.000000,0.000000,-2.292633
0.109264,0.014160,0.994995,-0.117920,1.564026,0.785828,0.381470
0.109411,0.018066,0.997925,-0.116699,-0.782013,-1.972198,0.381470
0.109558,0.015869,1.001587,-0.117188,-0.392914,2.758026,0.381470
0.109705,0.010498,1.004883,-0.116577,-0.782013,-1.186371,-1.529694
0.109852,0.013062,1.001221,-0.113647,0.392914,-1.186371,-2.292633
0.109999,0.018799,0.998413,-0.118164,-0.392914,-0.396729,1.525879
0.110146,0.012939,0.999268,-0.118774,0.392914,0.785828,-0.766754
0.110293,0.012573,0.992798,-0.116089,1.174927,-1.579285,-1.529694
0.110440,0.014160,0.994385,-0.117798,1.564026,0.000000,0.381470
0.110587,0.015137,0.996460,-0.116577,-3.520966,1.575470,1.144409
0.110734,0.017578,1.000488,-0.116821,1.174927,-0.789642,-1.911163
0.110937,0.019653,1.007080,-0.119141,0.392914,-1.186371,0.000000
0.111309,0.022339,0.997803,-0.120972,1.564026,-1.186371,-0.385284
0.111474,0.018921,0.993896,-0.121826,-1.174927,0.392914,0.762939
0.111615,0.024048,0.998535,-0.118286,1.564026,-0.789642,-0.766754
0.111762,0.016968,0.999512,-0.118530,-1.174927,1.182556,-0.385284
0.111909,0.016113,0.999146,-0.119507,-0.782013,-1.186371,-1.148224
0.112056,0.020630,0.997925,-0.119019,-1.564026,2.365112,0.381470
0.112219,0.015015,1.000610,-0.119263,1.956940,-3.154755,-0.766754
0.112350,0.015991,0.997559,-0.123047,-1.174927,2.365112,0.000000
0.112550,0.014771,0.998291,-0.120850,1.174927,-1.186371,-1.148224
0.112644,0.011719,0.996460,-0.118774,1.564026,-0.789642,0.000000
0.112793,0.014160,0.992065,-0.121094,-0.782013,0.000000,0.381470
0.112939,0.017212,0.996948,-0.114990,0.392914,0.785828,-1.529694
0.113085,0.008423,1.001587,-0.115479,-1.956940,-0.789642,1.144409
0.113231,0.007690,0.994141,-0.120483,0.782013,-0.396729,-0.385284
0.113379,0.010376,0.998169,-0.123169,-0.782013,1.575470,-1.529694
0.113526,0.016113,1.002197,-0.120117,0.782013,-2.368927,-0.385284
0.113673,0.017334,0.999634,-0.120850,1.174927,0.392914,0.381470
0.113820,0.008057,1.000122,-0.119507,-0.392914,1.182556,0.000000
0.113967,0.009277,1.002319,-0.116577,1.174927,-1.579285,-1.911163
0.114114,0.012817,1.000610,-0.123901,-1.564026,1.182556,0.381470
0.114261,0.011475,0.998657,-0.121094,0.000000,-1.579285,-0.766754
0.114408,0.006104,0.999512,-0.119385,0.392914,1.575470,0.381470
0.114555,0.013184,0.999146,-0.120117,-1.956940,-0.396729,-0.385284
0.114701,0.016968,0.994629,-0.120117,2.738953,0.000000,-0.766754
0.114848,0.008545,0.997437,-0.120850,0.000000,-1.579285,1.144409
0.114995,0.010010,1.004883,-0.123047,-0.782013,0.785828,-2.674103
0.115142,0.019897,1.003296,-0.117065,-1.564026,1.182556,1.144409
0.115289,0.017456,1.004883,-0.114502,2.349854,-3.551483,-3.055573
0.115436,0.020874,0.998047,-0.118774,-2.349854,1.968384,3.051758
0.115583,0.011353,0.992065,-0.115723,0.000000,-1.972198,-3.055573
0.115730,0.010864,0.995850,-0.120117,-0.392914,2.758026,0.381470
0.115877,0.012085,0.996826,-0.118042,1.956940,-3.154755,-1.529694
0.116024,0.015015,1.000977,-0.118286,-0.392914,0.000000,2.288818
0.116171,0.022583,0.998657,-0.116699,0.000000,0.785828,-1.911163
0.116318,0.014160,0.999146,-0.110718,3.131866,-1.972198,-1.911163
0.116465,0.015015,1.007812,-0.115967,-3.913879,1.182556,0.762939
0.116612,0.011230,1.004517,-0.120117,0.000000,-0.396729,-0.385284
0.116759,0.015137,0.996948,-0.116943,0.000000,0.785828,0.000000
0.116906,0.017578,0.997192,-0.118530,0.782013,-0.396729,-0.766754
0.117053,0.014648,0.999146,-0.120483,1.174927,-0.396729,-1.529694
0.117200,0.007935,1.003174,-0.120728,0.000000,0.392914,0.762939
0.117346,0.008911,1.000610,-0.118164,-0.392914,-0.396729,-0.385284
0.117494,0.013306,0.994019,-0.117920,-0.782013,-1.186371,-0.385284
0.117640,0.015869,1.004883,-0.120483,-0.782013,-0.396729,-1.529694
0.117787,0.016846,1.004639,-0.116089,0.782013,0.392914,0.381470
0.117934,0.015015,0.998901,-0.113159,0.000000,-0.396729,-1.911163
0.118081,0.010620,0.995239,-0.116943,1.564026,-1.186371,1.144409
0.118228,0.011597,0.992310,-0.119019,-0.392914,1.182556,-1.529694
0.118375,0.013184,0.995728,-0.118164,0.000000,0.000000,1.525879
0.118522,0.012451,0.995483,-0.122803,0.000000,-1.972198,-2.674103
0.118669,0.009888,1.001343,-0.125244,-0.782013,2.758026,0.762939
0.118816,0.010010,0.998535,-0.123169,-0.392914,-3.944397,-0.766754
0.118963,0.015259,0.993164,-0.119507,-0.782013,3.547668,0.381470
0.119110,0.015991,0.991089,-0.117676,2.738953,-2.761841,-2.674103
0.119257,0.013672,0.989868,-0.117798,-1.174927,0.785828,0.762939
0.119404,0.016846,0.992920,-0.119385,1.564026,-0.396729,-0.385284
0.119551,0.017090,0.995972,-0.119751,-1.956940,0.000000,0.000000
0.119698,0.010620,0.999634,-0.118164,-0.392914,1.575470,0.381470
0.119845,0.014771,0.995117,-0.120728,1.174927,-3.944397,-1.911163
0.119991,0.015869,0.993042,-0.118774,-1.564026,3.547668,1.907349
0.120138,0.012939,1.000610,-0.116943,0.000000,-1.186371,-2.292633
0.120286,0.016113,1.002686,-0.118408,1.174927,-0.396729,-1.148224
0.120432,0.012085,1.000488,-0.120483,0.782013,0.392914,1.144409
0.120580,0.014038,1.001587,-0.123901,0.000000,-1.186371,-2.674103
0.120726,0.013062,0.999268,-0.116699,-0.782013,1.182556,3.433228
0.120873,0.014648,0.995728,-0.114746,-0.392914,-1.972198,-3.818512
0.121020,0.017090,0.992065,-0.118042,1.564026,0.000000,0.762939
0.121167,0.019531,0.994751,-0.117920,-2.349854,1.182556,0.381470
0.121314,0.017334,0.996582,-0.117310,0.392914,-1.579285,-0.766754
0.121461,0.009155,0.995117,-0.116821,1.174927,0.785828,-2.292633
0.121608,0.017212,1.001099,-0.118774,0.000000,0.000000,1.907349
0.121799,0.012573,0.998291,-0.118530,0.782013,-0.789642,-1.148224
0.121913,0.011353,0.994751,-0.116577,-0.392914,-1.186371,-1.148224
0.122053,0.017578,0.995361,-0.116821,-1.174927,0.392914,1.525879
0.122196,0.013550,0.993896,-0.117798,1.564026,0.000000,-0.766754
0.122343,0.020142,0.998779,-0.117310,-2.738953,0.000000,-1.529694
0.122490,0.018066,0.993286,-0.117920,2.349854,0.392914,-0.766754
0.122637,0.016235,0.989258,-0.116211,-0.392914,-0.789642,0.000000
0.122783,0.015015,0.991455,-0.116577,0.782013,-0.396729,0.762939
0.122930,0.010254,0.994873,-0.120361,1.174927,0.000000,-1.148224
0.123124,0.013184,1.002197,-0.118286,-3.520966,-0.396729,1.144409
0.123220,0.014160,0.995605,-0.116089,3.913879,0.000000,-3.437042
0.123371,0.014404,0.993530,-0.119507,-1.564026,-0.789642,1.144409
0.123518,0.006470,0.996582,-0.122559,0.782013,0.785828,-0.385284
0.123665,0.007446,0.995850,-0.120483,-0.392914,-0.396729,-2.292633
0.123812,0.010376,0.999023,-0.118652,-1.564026,0.785828,1.525879
0.123959,0.013672,0.996460,-0.118774,1.956940,-1.186371,-1.148224
0.124106,0.012939,0.995972,-0.114746,-1.564026,-1.186371,0.381470
0.124253,0.015747,0.995361,-0.115601,1.956940,0.392914,-1.148224
0.124400,0.018677,0.993896,-0.121826,0.000000,0.392914,-1.529694
0.124547,0.017700,0.995972,-0.120361,-2.349854,2.365112,1.907349
0.124694,0.023926,0.996094,-0.116577,1.174927,-2.761841,-3.055573
0.124841,0.020996,0.999268,-0.117188,0.000000,-0.789642,1.525879
0.124988,0.015381,0.995972,-0.115479,0.782013,1.968384,-0.766754
0.125134,0.017578,0.995850,-0.118042,-0.392914,-1.579285,-1.148224
0.125281,0.018921,0.995483,-0.121704,0.000000,-0.396729,1.525879
0.125429,0.009766,0.995605,-0.122559,1.174927,0.785828,-0.385284
0.125575,0.009888,1.002686,-0.121582,-2.738953,0.392914,-0.385284
0.125722,0.019897,1.000732,-0.118164,2.349854,-1.579285,-1.529694
0.125869,0.022339,1.000000,-0.117554,-1.956940,0.785828,-0.766754
0.126016,0.016724,0.999268,-0.121704,2.738953,-1.972198,-0.766754
0.126163,0.009888,0.996094,-0.122559,-0.782013,2.365112,0.381470
0.126310,0.014038,0.996826,-0.120483,-0.782013,-2.368927,-0.385284
0.126458,0.017334,0.996704,-0.121094,-0.392914,0.785828,0.000000
0.126604,0.013306,0.998901,-0.116821,0.782013,0.785828,-0.385284
0.126751,0.015259,0.997559,-0.116455,1.564026,0.000000,-1.148224
0.126898,0.012939,0.993652,-0.121826,-1.956940,-2.368927,-1.148224
0.127045,0.015503,0.999390,-0.121094,0.000000,1.575470,0.000000
0.127192,0.020264,0.994507,-0.115845,2.349854,-0.396729,-1.148224
0.127339,0.017334,0.996460,-0.117188,-1.956940,-1.579285,0.381470
0.127486,0.013794,0.995483,-0.117920,1.564026,1.182556,0.381470
0.127633,0.013306,0.995972,-0.117554,-1.564026,-0.396729,0.000000
0.127780,0.013794,1.007446,-0.120605,1.174927,-0.789642,-1.529694
0.127927,0.017090,0.997803,-0.124146,0.000000,1.575470,0.000000
0.128073,0.020874,0.992188,-0.121826,-1.564026,-0.396729,-1.911163
0.128220,0.017700,0.998169,-0.119141,1.174927,-0.789642,1.525879
0.128367,0.012939,1.002441,-0.116821,-1.174927,0.000000,-1.148224
0.128514,0.014404,1.002319,-0.117065,1.956940,0.392914,0.000000
0.128661,0.016846,0.992188,-0.119751,-0.392914,-0.789642,-0.766754
0.128808,0.014648,0.992310,-0.119995,1.174927,0.000000,0.000000
0.128955,0.013916,0.997437,-0.120972,-1.174927,-0.789642,-0.766754
0.129102,0.018188,0.998291,-0.119019,-0.782013,1.575470,0.000000
0.129249,0.016846,0.997192,-0.118530,1.564026,-1.972198,-1.529694
0.129396,0.016846,0.996216,-0.118774,-1.956940,1.575470,1.525879
0.129543,0.016846,0.994507,-0.121826,2.738953,-1.972198,-2.292633
0.129690,0.013672,0.990723,-0.120728,-1.564026,0.392914,0.762939
0.129837,0.015137,0.993530,-0.120605,-0.392914,-1.186371,-0.766754
0.129984,0.013306,0.987183,-0.120605,1.174927,-1.579285,-0.385284
0.130131,0.011353,0.989868,-0.120605,-2.738953,2.758026,0.000000
0.130278,0.012939,0.996704,-0.116699,2.738953,-0.789642,-1.911163
0.130426,0.019653,0.995361,-0.118530,-0.392914,-1.186371,1.144409
0.130572,0.019287,0.995728,-0.116577,-1.564026,0.785828,-0.385284
0.130724,0.015015,0.997925,-0.107910,0.392914,0.000000,0.000000
0.130866,0.017700,0.996948,-0.115234,0.392914,0.000000,0.000000
0.131012,0.017822,0.999634,-0.120850,0.392914,-1.579285,-2.674103
0.131160,0.015625,0.999023,-0.118652,0.392914,-0.396729,2.288818
0.131306,0.015991,0.990845,-0.115479,0.000000,1.575470,-3.055573
0.131453,0.010864,0.994629,-0.116577,0.782013,-1.579285,1.144409
0.131600,0.010742,0.997681,-0.119263,-1.174927,1.968384,-0.766754
0.131747,0.013550,0.996704,-0.118408,-0.782013,-1.579285,-0.385284
0.131894,0.012939,0.991577,-0.117798,1.956940,-1.186371,-0.385284
0.132041,0.012207,0.991455,-0.116333,0.000000,0.392914,1.144409
0.132188,0.015381,0.997437,-0.111938,-0.782013,0.000000,-1.148224
0.132335,0.018433,1.001343,-0.116821,-0.782013,0.392914,-2.292633
0.132482,0.015381,0.998901,-0.116577,1.174927,0.000000,1.144409
0.132629,0.016113,0.997681,-0.114624,-0.392914,-1.579285,-2.674103
0.132776,0.015015,1.002808,-0.119507,-1.174927,2.365112,1.144409
0.132923,0.016968,0.998901,-0.113647,1.174927,-3.944397,0.000000
0.133070,0.018799,0.995850,-0.117798,0.000000,1.575470,-1.911163
0.133217,0.015869,0.997925,-0.119019,0.000000,0.392914,1.525879
0.133364,0.013794,1.002930,-0.116333,1.564026,-1.186371,-1.529694
0.133510,0.016113,1.005981,-0.119385,-1.564026,0.785828,1.144409
0.133657,0.015991,1.001099,-0.119751,1.956940,-1.579285,-4.199982
0.133804,0.012939,0.997070,-0.121338,-2.349854,-0.396729,1.525879
0.133952,0.017578,1.001343,-0.120972,0.782013,1.968384,0.000000
0.134098,0.010010,1.001465,-0.122314,-0.782013,-1.186371,0.000000
0.134245,0.017944,0.997925,-0.121704,0.782013,-1.186371,-1.148224
0.134392,0.015869,0.999146,-0.119141,-1.174927,0.392914,0.762939
0.134539,0.011963,1.003174,-0.114990,1.174927,0.785828,0.762939
0.134686,0.012695,0.999146,-0.116211,0.392914,-1.186371,-1.148224
0.134833,0.016235,0.995361,-0.118774,-1.564026,0.392914,-1.911163
0.134980,0.025879,0.999268,-0.117188,2.738953,-0.789642,-0.766754
0.135127,0.020752,1.002686,-0.116577,-3.913879,1.575470,2.670288
0.135274,0.021851,0.999756,-0.117188,3.913879,-3.551483,-3.055573
0.135421,0.016968,1.002197,-0.118286,-3.520966,1.182556,1.525879
0.135568,0.013306,1.005615,-0.122070,1.174927,0.785828,-1.911163
0.135715,0.015625,1.004395,-0.119263,2.738953,-0.396729,-0.385284
0.135862,0.022339,0.999390,-0.121704,-1.956940,-1.579285,-0.766754
0.136009,0.019165,0.998169,-0.120117,1.564026,0.785828,-0.385284
0.136155,0.014038,0.998291,-0.113770,-1.564026,-0.396729,-1.148224
0.136303,0.015625,0.994629,-0.120972,1.174927,1.182556,1.525879
0.136449,0.016602,0.993530,-0.121460,-1.564026,-2.761841,-1.148224
0.136596,0.017944,0.996826,-0.118164,-0.392914,2.365112,-0.385284
0.136742,0.015869,1.004517,-0.119385,2.349854,-2.761841,-1.911163
0.136887,0.012329,0.999512,-0.119385,0.392914,1.182556,0.762939
0.137034,0.010742,0.997803,-0.116943,-0.782013,0.392914,-1.911163
0.137181,0.012451,0.997437,-0.115601,-0.782013,0.000000,0.381470
0.137328,0.020142,0.994019,-0.116943,1.956940,-1.186371,-0.385284
0.137475,0.013794,0.995239,-0.118774,-2.738953,1.182556,1.907349
0.137622,0.008667,0.997437,-0.119995,1.174927,-1.579285,-3.055573
0.137769,0.010254,1.000000,-0.119873,-1.174927,0.785828,1.525879
0.137916,0.010498,0.997070,-0.116821,3.131866,-1.579285,-1.911163
0.138063,0.010864,0.993530,-0.119629,-0.392914,0.785828,0.762939
0.138210,0.011353,0.995483,-0.118530,-0.782013,0.000000,-2.292633
0.138357,0.011475,0.995972,-0.123047,1.564026,0.785828,0.381470
0.138504,0.008301,0.997559,-0.127319,-2.738953,-0.789642,0.000000
0.138651,0.010132,0.996094,-0.120728,0.782013,-1.186371,-0.766754
0.138798,0.011719,0.996826,-0.118164,-0.392914,1.182556,0.762939
0.138945,0.014526,0.998901,-0.120361,1.564026,-1.186371,-1.529694
0.139092,0.012451,1.001099,-0.119263,0.782013,-0.396729,-1.529694
0.139239,0.013062,0.997681,-0.120605,-1.174927,0.392914,0.762939
0.139386,0.014282,0.996094,-0.117798,0.782013,-0.789642,-1.911163
0.139532,0.016968,1.000366,-0.115601,0.000000,-0.396729,-0.385284
0.139679,0.017822,0.994019,-0.115112,-0.782013,-0.396729,1.144409
0.139826,0.013916,0.997070,-0.114258,0.392914,1.575470,-1.911163
0.139973,0.010742,0.998413,-0.119263,-1.564026,-1.579285,2.288818
0.140120,0.012207,0.993164,-0.117920,3.913879,0.000000,-1.529694
0.140268,0.020630,0.995972,-0.119385,-2.349854,-1.186371,0.000000
0.140414,0.022705,1.001343,-0.117310,0.392914,1.575470,-3.055573
0.140561,0.015503,0.996460,-0.118286,1.174927,-0.789642,1.525879
0.140708,0.015381,0.989990,-0.121704,-0.782013,-1.579285,-0.385284
0.140855,0.022461,0.996460,-0.120483,0.392914,0.785828,-0.766754
0.141002,0.024414,0.998657,-0.116821,-2.738953,-0.789642,0.381470
0.141149,0.021484,0.997314,-0.117432,1.564026,1.968384,0.381470
0.141296,0.020752,1.001587,-0.115967,1.174927,-1.972198,-1.529694
0.141443,0.019653,1.000610,-0.118896,1.956940,-0.789642,-1.148224
0.141589,0.018066,1.000366,-0.119263,-3.520966,1.575470,1.907349
0.141737,0.016602,1.003662,-0.120483,1.564026,-1.972198,-3.818512
0.141884,0.010132,1.000366,-0.121704,-1.174927,1.575470,2.670288
0.142031,0.015991,0.995605,-0.114502,-0.782013,-0.396729,-1.911163
0.142178,0.027710,0.996704,-0.113281,1.174927,-0.789642,-0.385284
0.142325,0.018799,1.000000,-0.116577,0.782013,-1.186371,1.144409
0.142472,0.012817,0.994873,-0.122803,1.956940,1.182556,-1.911163
0.142618,0.016968,0.995972,-0.119507,-1.564026,-0.396729,-0.385284
0.142765,0.015625,0.999268,-0.114746,-0.392914,-0.789642,-0.766754
0.142912,0.009888,0.995972,-0.116943,-1.174927,0.785828,1.144409
0.143059,0.007690,0.999023,-0.122925,0.782013,-1.186371,-2.292633
0.143206,0.011108,0.997803,-0.122681,-1.174927,1.575470,2.288818
0.143353,0.015137,0.997070,-0.120361,1.956940,-2.761841,-2.674103
0.143500,0.015747,0.998779,-0.114380,0.000000,1.182556,0.381470
0.143647,0.013306,1.002197,-0.113647,1.174927,0.000000,0.762939
0.143794,0.009521,0.998901,-0.118896,-0.782013,-1.972198,-1.529694
0.143941,0.004517,0.992676,-0.121704,0.000000,1.575470,-1.529694
0.144088,0.007568,0.998779,-0.122925,-0.392914,0.000000,1.144409
0.144235,0.009277,1.001465,-0.119263,-1.174927,-1.186371,0.000000
0.144382,0.014526,1.000977,-0.119873,0.000000,1.575470,-0.385284
0.144528,0.018799,1.003052,-0.119507,1.956940,-2.368927,-1.148224
0.144675,0.017578,0.993896,-0.122559,-1.564026,2.758026,0.762939
0.144823,0.012207,0.997559,-0.118286,1.564026,-2.761841,-1.529694
0.144970,0.012573,0.998535,-0.116455,-0.392914,0.000000,-0.766754
0.145116,0.008057,0.998169,-0.119385,-0.392914,0.000000,-1.148224
0.145263,0.008057,1.001221,-0.116211,-0.782013,0.392914,0.762939
0.145410,0.011963,0.999756,-0.120850,-0.782013,1.968384,0.762939
0.145557,0.014404,1.000488,-0.124390,1.564026,-1.972198,-1.148224
0.145704,0.016113,0.997925,-0.119995,-0.392914,-0.789642,-2.292633
0.145851,0.010742,0.998047,-0.118164,1.174927,0.392914,0.762939
0.145998,0.007935,0.999023,-0.117554,-0.782013,0.392914,0.000000
0.146145,0.012329,0.996826,-0.116333,0.782013,-1.186371,-1.911163
0.146292,0.016602,0.992920,-0.120850,-2.738953,0.000000,0.762939
0.146439,0.015381,0.994751,-0.123291,1.956940,0.000000,0.381470
0.146586,0.017090,0.992065,-0.120117,0.392914,-1.186371,-1.911163
0.146733,0.014526,0.997925,-0.119873,-0.392914,1.182556,1.525879
0.146879,0.014648,1.000854,-0.120972,0.392914,0.000000,-1.911163
0.147027,0.015991,0.997803,-0.117554,1.174927,-1.186371,-1.529694
0.147174,0.011475,0.998169,-0.116089,-1.564026,3.150940,1.525879
0.147321,0.009399,0.996948,-0.121338,1.956940,-5.519867,-3.818512
0.147468,0.005371,0.996826,-0.120605,-2.738953,3.940582,3.814697
0.147615,0.006104,0.996460,-0.119263,2.349854,-3.944397,-3.055573
0.147761,0.013428,1.001221,-0.119141,-1.564026,3.547668,1.525879
0.147909,0.018188,1.002930,-0.116699,1.174927,-1.972198,-0.766754
0.148055,0.019287,1.001465,-0.121460,0.782013,0.785828,-0.766754
0.148202,0.021362,0.999268,-0.120605,0.000000,-1.972198,-2.674103
0.148349,0.017944,1.000610,-0.117065,-0.782013,1.182556,1.144409
0.148496,0.014282,0.997192,-0.121216,0.392914,-1.186371,-0.385284
0.148643,0.004883,0.990967,-0.122437,-0.782013,1.575470,0.000000
0.148790,0.007446,0.996704,-0.118774,0.392914,-2.761841,-1.148224
0.148937,0.018188,0.994629,-0.119385,0.392914,3.150940,0.000000
0.149084,0.014282,0.992554,-0.122559,-0.392914,-2.368927,-0.385284
0.149235,0.018066,0.991699,-0.125366,1.174927,-0.396729,-0.385284
0.149378,0.014771,0.994141,-0.122681,-0.392914,0.392914,-1.911163
0.149525,0.016724,1.000732,-0.117920,1.174927,-2.368927,-0.766754
0.149672,0.019653,1.004883,-0.115845,-3.913879,2.365112,2.288818
0.149819,0.012695,1.004028,-0.117188,1.956940,-0.789642,-1.529694
0.149966,0.012451,0.999878,-0.112305,1.174927,0.000000,-1.148224
0.150113,0.016724,0.997192,-0.117065,-1.564026,1.182556,1.525879
0.150260,0.018188,0.997314,-0.121826,0.782013,-1.186371,-2.292633
0.150408,0.018311,1.001465,-0.114746,0.782013,-1.579285,0.000000
0.150553,0.016479,1.000244,-0.118530,-0.782013,-1.186371,-1.911163
0.150700,0.013794,1.001953,-0.122559,-0.782013,1.182556,2.288818
0.150847,0.010742,0.999756,-0.121826,1.174927,0.785828,-1.529694
0.150994,0.011841,0.999756,-0.120117,-0.782013,-0.396729,-0.385284
0.151140,0.015869,1.000000,-0.116943,0.782013,0.000000,-1.148224
0.151288,0.014282,0.995728,-0.118042,-2.738953,1.575470,1.907349
0.151434,0.018311,1.002319,-0.119995,3.913879,-4.734039,-2.674103
0.151581,0.016479,0.998779,-0.117310,-1.174927,2.365112,-0.385284
0.151728,0.008179,0.999512,-0.117554,-0.392914,0.392914,1.144409
0.151875,0.012695,1.003662,-0.118530,0.782013,-2.368927,-1.911163
0.152022,0.014282,0.995361,-0.118042,-0.782013,1.182556,-1.148224
0.152169,0.015503,0.993652,-0.121826,-0.782013,1.968384,2.288818
0.152316,0.013916,0.994751,-0.119995,1.564026,-1.186371,-1.529694
0.152463,0.010010,0.992432,-0.119873,-0.782013,0.785828,-0.766754
0.152610,0.006470,0.991699,-0.123779,0.000000,-2.761841,-1.529694
0.152757,0.014771,0.994873,-0.122314,0.392914,0.785828,1.525879
0.152904,0.014404,0.997314,-0.119507,-0.782013,1.182556,-0.766754
0.153051,0.015015,0.996948,-0.118652,0.782013,-2.761841,-1.911163
0.153198,0.012939,0.993896,-0.119751,-1.564026,1.182556,1.144409
0.153345,0.013672,0.999268,-0.117432,2.349854,1.182556,0.381470
0.153491,0.013672,0.999512,-0.116821,-0.782013,-0.396729,-2.292633
0.153638,0.015381,0.994507,-0.124146,-0.782013,-1.579285,1.525879
0.153786,0.025269,0.995850,-0.124634,-0.782013,1.182556,-2.674103
0.153933,0.014648,0.997559,-0.117065,1.956940,-1.186371,0.762939
0.154080,0.015503,0.999268,-0.117065,0.000000,-1.579285,-1.148224
0.154226,0.015991,0.993530,-0.118774,-1.564026,1.968384,-0.385284
0.154373,0.016846,0.998413,-0.118652,1.956940,0.392914,0.000000
0.154534,0.013306,0.999878,-0.120483,-0.392914,0.392914,1.144409
0.154668,0.010010,1.000000,-0.120361,1.174927,-2.761841,-3.055573
0.154815,0.011108,1.000000,-0.120361,-1.564026,2.365112,1.525879
0.155170,0.014404,1.001343,-0.122192,-1.174927,-1.186371,-0.766754
0.155252,0.014404,0.998901,-0.121338,1.174927,0.785828,0.762939
0.155407,0.013306,0.997925,-0.119995,-0.782013,1.575470,0.381470
0.155548,0.011719,0.996948,-0.118408,0.392914,0.000000,-0.766754
0.155695,0.012695,0.997803,-0.118408,2.738953,-0.396729,-0.385284
0.155842,0.015503,0.997070,-0.120605,-3.913879,0.392914,-0.766754
0.155989,0.017334,0.997070,-0.122803,1.564026,0.392914,-0.766754
0.156136,0.010864,0.993774,-0.119629,0.000000,-2.368927,0.381470
0.156283,0.009644,0.993164,-0.121460,0.392914,-0.789642,-2.292633
0.156467,0.012573,0.994141,-0.119141,-1.956940,2.365112,3.051758
0.156574,0.012695,0.996582,-0.114258,3.520966,-3.551483,-2.292633
0.156724,0.013062,0.998657,-0.117188,-1.956940,2.758026,0.000000
0.156871,0.015747,0.999146,-0.117920,0.000000,-1.186371,0.762939
0.157018,0.019409,1.000732,-0.121460,0.392914,0.785828,-1.911163
0.157164,0.016602,1.000366,-0.121948,0.000000,-1.186371,-1.148224
0.157312,0.016968,0.994507,-0.119019,-2.349854,-0.789642,0.762939
0.157458,0.014648,0.996094,-0.114014,2.738953,-0.789642,-0.385284
0.157605,0.008911,1.002075,-0.115967,-0.782013,0.000000,-0.766754
0.157752,0.011597,1.001099,-0.121704,0.392914,0.785828,0.762939
0.157900,0.014160,0.998779,-0.117554,0.000000,0.000000,-1.529694
0.158046,0.012695,0.992798,-0.114624,0.000000,0.392914,-0.766754
0.158193,0.011963,0.992676,-0.118774,-1.174927,-0.789642,0.381470
0.158340,0.012939,0.997559,-0.121094,0.782013,-0.396729,-1.911163
0.158489,0.012085,1.001343,-0.117920,-1.564026,-0.396729,1.144409
0.158633,0.009766,1.008911,-0.116577,2.349854,0.000000,-1.911163
0.158780,0.012573,1.003906,-0.117554,-2.349854,0.785828,2.670288
0.158928,0.014038,1.000366,-0.120605,3.131866,-1.972198,-3.055573
0.159075,0.013428,1.002686,-0.119873,-1.564026,1.968384,0.762939
0.159222,0.009521,0.995850,-0.119873,1.174927,-0.789642,-2.674103
0.159369,0.010254,0.996582,-0.119873,-1.956940,0.785828,0.762939
0.159515,0.016602,1.004639,-0.117432,1.174927,-2.368927,-0.385284
0.159662,0.016113,0.998779,-0.113647,0.000000,-0.396729,-0.385284
0.159809,0.013184,0.997070,-0.118896,-1.174927,1.575470,0.381470
0.159956,0.019897,0.994263,-0.119873,1.564026,-2.761841,-2.292633
0.160104,0.013184,0.992310,-0.118408,1.174927,2.365112,3.433228
0.160250,0.009644,1.002075,-0.119141,-1.174927,-1.186371,-3.055573
0.160397,0.014404,1.000977,-0.116333,1.174927,1.968384,-0.385284
0.160544,0.015747,0.994873,-0.118408,-3.131866,-1.579285,1.907349
0.160691,0.011963,0.997070,-0.117432,1.956940,-0.789642,-4.199982
0.160838,0.007690,0.998047,-0.116821,0.000000,-1.972198,2.288818
0.160985,0.015259,0.999756,-0.117065,-0.782013,0.392914,-0.385284
0.161132,0.010620,0.995483,-0.117310,0.000000,1.182556,0.000000
0.161279,0.005493,0.993896,-0.118652,2.738953,-0.396729,-2.292633
0.161425,0.011353,0.998535,-0.120850,-1.956940,1.575470,1.144409
0.161572,0.013184,0.998779,-0.118408,-1.174927,-1.972198,-1.148224
0.161719,0.012451,0.999756,-0.118896,2.349854,-0.396729,-2.292633
0.161866,0.019165,0.995728,-0.119263,-1.956940,-0.789642,1.907349
0.162013,0.018799,0.996582,-0.113770,0.782013,0.785828,-0.766754
0.162161,0.014893,0.997192,-0.113159,-0.392914,0.000000,0.381470
0.162306,0.008911,0.995483,-0.117676,1.564026,-2.368927,-1.911163
0.162539,0.016968,0.993530,-0.114380,0.392914,-2.368927,-3.437042
0.162755,0.014526,0.991455,-0.117798,-3.131866,2.365112,3.051758
0.162899,0.014404,0.993286,-0.126099,2.738953,-3.154755,-3.437042
0.163046,0.010864,0.996582,-0.123657,0.000000,-0.789642,1.525879
0.163194,0.013550,0.999634,-0.116821,-3.520966,1.968384,0.000000
0.163340,0.016479,0.997192,-0.119629,3.913879,-1.579285,-1.529694
0.163487,0.014038,1.000244,-0.116455,-1.564026,1.968384,-0.766754
0.163634,0.014893,1.000854,-0.119751,1.956940,-0.396729,-0.766754
0.163781,0.014526,0.996704,-0.118530,-2.349854,-0.789642,1.144409
0.163928,0.011108,1.000488,-0.115601,0.000000,0.000000,-1.529694
0.164074,0.011353,0.994019,-0.119751,0.782013,0.000000,-0.766754
0.164222,0.017578,0.994629,-0.115967,-0.782013,-0.789642,-1.529694
0.164368,0.018799,0.990723,-0.113159,0.000000,-1.186371,1.144409
0.164515,0.018066,0.987915,-0.115845,3.131866,1.182556,-0.385284
0.164662,0.012695,1.001953,-0.116333,-3.131866,-0.789642,-0.385284
0.164809,0.008057,0.999268,-0.112671,0.782013,2.365112,-1.529694
0.164956,0.015137,0.997925,-0.110107,0.782013,-3.944397,0.762939
0.165103,0.014282,1.001953,-0.114502,-1.564026,2.365112,-1.148224
0.165250,0.011963,1.000732,-0.119873,1.174927,0.000000,-1.148224
0.165398,0.010986,0.997803,-0.121948,0.392914,-1.186371,1.907349
0.165544,0.010620,0.998535,-0.117798,0.000000,-1.186371,-2.292633
0.165691,0.010376,0.999512,-0.117065,0.782013,1.182556,-0.766754
0.165838,0.016235,0.993042,-0.118042,-0.782013,-0.789642,-0.766754
0.165985,0.018433,0.997925,-0.114380,-0.392914,0.392914,-0.385284
0.166132,0.010742,1.000122,-0.116821,0.392914,-0.396729,0.000000
0.166279,0.013306,1.000977,-0.118042,-0.782013,-0.789642,-1.529694
0.166427,0.018311,1.002319,-0.116821,-0.782013,1.575470,1.525879
0.166574,0.019531,0.996704,-0.118530,0.782013,-1.186371,-0.766754
0.166720,0.017334,0.999756,-0.121216,0.392914,-1.186371,-2.674103
0.166866,0.012329,1.000366,-0.117432,1.564026,0.785828,1.144409
0.167014,0.007935,0.990967,-0.113281,-1.956940,0.000000,0.000000
0.167161,0.014893,0.987549,-0.117310,-0.392914,0.392914,-1.148224
0.167308,0.016113,0.993286,-0.116089,1.174927,-0.396729,-1.529694
0.167454,0.018188,0.994751,-0.117065,-1.174927,-1.186371,0.762939
0.167601,0.017944,0.993774,-0.120483,-1.564026,2.758026,0.762939
0.167748,0.010254,0.993896,-0.119995,4.306793,-4.734039,-2.674103
0.167941,0.013550,0.989258,-0.120605,-3.131866,1.968384,0.762939
0.168037,0.011475,0.994263,-0.121338,2.349854,0.000000,0.000000
0.168189,0.016724,0.997559,-0.115723,-0.782013,-0.396729,-1.529694
0.168336,0.018555,0.992188,-0.115845,-2.738953,0.785828,0.381470
0.168484,0.012451,1.000366,-0.118896,3.520966,-3.154755,-2.674103
0.168630,0.015991,1.006104,-0.116821,-3.913879,2.365112,3.051758
0.168777,0.014282,0.998901,-0.115723,2.349854,-1.186371,-2.292633
0.168924,0.014038,0.994507,-0.120117,0.392914,-1.186371,-0.766754
0.169070,0.016968,0.998535,-0.121216,-1.564026,1.575470,3.433228
0.169218,0.010986,0.999146,-0.115723,1.956940,-1.186371,-4.199982
0.169364,0.014526,0.995361,-0.116943,-1.564026,0.000000,1.144409
0.169513,0.017822,0.995361,-0.116333,0.000000,1.575470,-2.674103
0.169659,0.014160,0.995972,-0.116577,0.392914,-3.154755,1.525879
0.169805,0.016602,0.997559,-0.119263,0.782013,0.785828,-0.766754
0.169952,0.011475,0.999268,-0.118774,-0.392914,-0.396729,0.381470
0.170099,0.013306,1.002075,-0.118652,-0.392914,0.785828,-1.148224
0.170246,0.018066,0.999023,-0.119751,0.782013,-0.396729,1.525879
0.170393,0.010132,0.995117,-0.116821,-2.738953,0.392914,-2.292633
0.170541,0.011475,0.993042,-0.115723,3.520966,-2.761841,-1.148224
0.170687,0.015991,0.996460,-0.114746,-1.956940,2.758026,-1.148224
0.170834,0.014648,0.995483,-0.116211,1.564026,-0.789642,1.144409
0.170981,0.015015,0.991699,-0.120483,-1.956940,1.182556,-0.766754
0.171128,0.015503,0.996338,-0.113892,2.349854,-4.337311,-2.674103
0.171275,0.014160,0.996948,-0.113159,-1.564026,2.365112,1.907349
0.171422,0.002808,0.997803,-0.121948,-0.392914,0.000000,-0.766754
0.171570,0.013794,1.000244,-0.123169,-0.782013,-0.396729,-1.148224
0.171712,0.016602,0.998047,-0.121216,0.782013,0.785828,0.381470
0.171859,0.016113,0.996948,-0.121460,-0.782013,-1.972198,-1.911163
0.172006,0.015991,0.997437,-0.116333,2.738953,0.785828,0.381470
0.172153,0.019287,1.000000,-0.119141,-3.131866,-2.368927,-1.529694
0.172300,0.019897,1.001343,-0.118774,1.956940,1.182556,0.000000
0.172447,0.013306,1.002563,-0.116821,-1.564026,1.182556,1.525879
0.172594,0.018555,1.003052,-0.118896,0.392914,-1.186371,-1.911163
0.172741,0.011353,0.999634,-0.116089,-0.392914,0.392914,-0.385284
0.172888,0.008057,0.998779,-0.115967,0.782013,-0.789642,-1.148224
0.173035,0.010864,0.993164,-0.115234,-0.782013,0.000000,-0.385284
0.173182,0.016602,0.997070,-0.118408,1.564026,0.392914,0.381470
0.173329,0.011108,1.000488,-0.121948,-0.392914,-1.972198,-2.292633
0.173475,0.006714,0.991455,-0.119263,-0.392914,0.785828,2.670288
0.173622,0.010864,0.999023,-0.119141,-0.392914,0.785828,-1.529694
0.173770,0.012085,1.002808,-0.113892,0.000000,-1.186371,-1.911163
0.173916,0.010864,1.002563,-0.117798,0.000000,0.000000,1.144409
0.174063,0.012817,1.004517,-0.120117,-0.392914,1.182556,-0.385284
0.174210,0.013306,0.996826,-0.120483,2.349854,-3.551483,-2.292633
0.174357,0.009888,0.996216,-0.119995,-2.349854,3.150940,2.288818
0.174504,0.012939,1.001343,-0.115234,0.392914,-0.396729,-0.766754
0.174651,0.020264,1.000732,-0.117798,1.564026,-1.186371,-3.437042
0.174799,0.016113,0.995361,-0.120850,-1.174927,1.968384,3.433228
0.174945,0.011841,0.995361,-0.119141,-1.174927,-1.579285,-1.529694
0.175092,0.009155,0.997803,-0.120605,2.349854,-1.186371,-1.148224
0.175240,0.013550,0.998779,-0.123047,-2.349854,1.182556,-1.911163
0.175386,0.018188,0.998047,-0.120239,0.392914,0.785828,2.288818
0.175533,0.016846,0.996216,-0.123413,0.000000,-2.761841,-1.911163
0.175680,0.018555,0.996704,-0.117554,1.956940,0.785828,0.381470
0.175828,0.015259,0.996460,-0.113647,-2.349854,1.968384,0.762939
0.175974,0.012573,0.997681,-0.115723,2.349854,-3.154755,-2.292633
0.176121,0.015259,0.999268,-0.114014,-2.349854,1.575470,1.144409
0.176268,0.012817,1.001709,-0.118408,1.174927,-2.761841,-2.292633
0.176414,0.009766,0.998413,-0.117310,-0.782013,2.365112,0.381470
0.176562,0.013672,0.997192,-0.117554,0.392914,0.392914,0.381470
0.176708,0.016113,0.998779,-0.121338,-0.782013,-1.972198,-1.148224
0.176856,0.016357,0.996582,-0.115601,1.956940,1.182556,-0.766754
0.177002,0.013794,0.991577,-0.114502,-1.956940,0.000000,0.000000
0.177149,0.014282,0.992065,-0.117432,0.000000,0.000000,0.381470
0.177296,0.018677,1.002808,-0.119995,1.174927,-0.396729,-1.911163
0.177443,0.014526,1.001709,-0.117676,-1.564026,0.000000,-0.385284
0.177591,0.012207,0.992798,-0.115967,1.564026,-0.396729,-1.148224
0.177738,0.014282,0.990967,-0.116455,-0.782013,1.182556,0.381470
0.177885,0.017578,0.995239,-0.118286,1.564026,-3.154755,-1.529694
0.178031,0.019287,0.996704,-0.115967,0.000000,1.575470,1.144409
0.178178,0.014282,0.996460,-0.115723,-2.349854,0.785828,-0.766754
0.178325,0.009521,0.995483,-0.119995,2.738953,-1.186371,-0.385284
0.178477,0.015625,0.993164,-0.121582,-1.174927,0.392914,0.000000
0.178620,0.016235,1.000244,-0.119141,-1.564026,0.785828,-1.911163
0.178768,0.014893,1.000122,-0.113525,1.174927,-2.368927,-0.766754
0.178915,0.018066,1.001709,-0.115356,1.174927,1.968384,0.381470
0.179062,0.016968,1.003784,-0.118774,-1.956940,0.785828,2.288818
0.179208,0.016357,1.001099,-0.118286,1.956940,-3.154755,-4.199982
0.179355,0.009888,0.998779,-0.115356,-1.174927,1.182556,2.670288
0.179502,0.012207,0.996582,-0.115967,0.000000,0.392914,-0.766754
0.179649,0.021729,1.000488,-0.116333,-0.782013,-1.972198,-1.529694
0.179796,0.017700,1.000366,-0.117920,0.392914,1.182556,-1.148224
0.179943,0.012939,0.998047,-0.117920,0.392914,1.182556,1.144409
0.180090,0.017578,1.001953,-0.117920,1.174927,-2.761841,-2.292633
0.180237,0.010742,1.006836,-0.119385,-1.174927,2.365112,1.525879
0.180383,0.011475,1.001709,-0.118408,1.174927,-1.186371,0.000000
0.180531,0.013916,0.994629,-0.121338,-2.349854,-0.789642,-0.766754
0.180678,0.011353,0.991821,-0.117798,1.956940,0.392914,-1.529694
0.180825,0.014282,0.993042,-0.117065,-1.174927,-1.972198,-0.385284
0.180972,0.012573,0.996704,-0.116577,0.000000,2.365112,0.762939
0.181119,0.015259,0.996094,-0.113892,-0.392914,0.000000,-1.911163
0.181266,0.013916,0.994629,-0.113037,0.000000,-0.396729,1.907349
0.181412,0.015259,0.998169,-0.117676,-0.392914,0.785828,-1.148224
0.181559,0.013916,0.995361,-0.121948,1.564026,-2.761841,-1.529694
0.181706,0.014282,0.995361,-0.121460,-0.392914,0.392914,-0.385284
0.181853,0.011597,0.999634,-0.115356,-1.174927,0.785828,0.381470
0.182001,0.006836,0.992676,-0.111450,-1.174927,0.785828,0.762939
0.182148,0.008667,0.991333,-0.118530,0.782013,-1.579285,-3.055573
0.182294,0.013794,1.001709,-0.118652,0.392914,0.785828,1.907349
0.182442,0.016724,0.998291,-0.115845,-0.782013,0.000000,-0.766754
0.182587,0.017578,0.995117,-0.119995,1.564026,-1.579285,-3.055573
0.182734,0.016113,0.996582,-0.118774,-1.956940,2.365112,3.814697
0.182881,0.012939,0.999756,-0.119019,1.956940,-1.186371,-3.055573
0.183028,0.013306,1.002930,-0.119995,0.000000,-1.579285,-0.766754
0.183175,0.013428,1.000366,-0.113525,0.782013,-0.396729,-0.766754
0.183322,0.013062,0.998779,-0.116577,-3.131866,0.000000,0.000000
0.183469,0.010376,1.001221,-0.122437,0.392914,1.968384,-0.385284
0.183616,0.010864,0.999023,-0.122925,2.349854,-1.186371,1.525879
0.183763,0.013062,0.995483,-0.121338,-1.564026,-0.396729,-2.292633
0.183910,0.010986,0.998169,-0.118530,1.564026,0.000000,0.762939
0.184057,0.014160,0.999023,-0.118408,-0.392914,-0.396729,-1.148224
0.184204,0.017944,0.997192,-0.118042,0.000000,-1.579285,-0.766754
0.184351,0.014160,0.993774,-0.118896,0.392914,0.392914,-0.766754
0.184498,0.014893,0.991455,-0.117188,-1.174927,1.575470,0.381470
0.184644,0.014526,0.994629,-0.115479,-1.174927,-0.396729,-0.766754
0.184792,0.011841,1.002319,-0.117676,1.564026,0.785828,-1.148224
0.184938,0.009155,0.999146,-0.116943,0.782013,-2.368927,2.288818
0.185085,0.010376,0.997192,-0.115234,0.000000,0.392914,-2.292633
0.185233,0.019653,0.996948,-0.115356,-1.564026,0.785828,-0.385284
0.185379,0.017822,0.997070,-0.121216,1.956940,-1.972198,-0.766754
0.185526,0.015625,0.992798,-0.119873,-0.782013,1.575470,-1.911163
0.185673,0.020874,0.993408,-0.119263,-0.392914,-0.789642,1.907349
0.185820,0.014160,0.998657,-0.119873,-0.782013,-1.186371,-2.292633
0.185972,0.013916,1.000122,-0.120239,0.782013,1.575470,0.762939
0.186114,0.019287,0.998413,-0.120117,-1.564026,-0.789642,0.000000
0.186262,0.017700,0.997803,-0.121216,1.956940,-0.396729,0.762939
0.186415,0.015747,0.998413,-0.125366,0.392914,-1.972198,-4.199982
0.186556,0.017334,0.993530,-0.118164,-1.956940,-0.396729,3.433228
0.186702,0.011963,0.997314,-0.116943,1.174927,1.575470,-2.674103
0.186850,0.012695,0.998657,-0.119507,-0.782013,0.392914,-1.148224
0.186997,0.017212,0.999512,-0.119263,1.174927,-0.789642,1.525879
0.187143,0.013672,0.998413,-0.118774,-1.174927,-0.789642,-1.911163
0.187290,0.009399,1.001099,-0.122192,1.564026,0.392914,1.525879
0.187438,0.010742,1.005493,-0.122314,-1.564026,-0.789642,-1.529694
0.187585,0.016357,1.001343,-0.121216,0.782013,-1.579285,0.000000
0.187731,0.014404,0.998047,-0.120361,0.000000,1.182556,-0.766754
0.187878,0.018311,0.997070,-0.114014,0.000000,0.000000,0.762939
0.188025,0.017822,1.000610,-0.115967,-1.174927,0.000000,-3.055573
0.188172,0.019165,0.998535,-0.122070,1.956940,-1.186371,2.288818
0.188319,0.017456,0.995361,-0.119263,-0.782013,1.182556,-1.911163
0.188466,0.014038,0.993652,-0.116333,-0.392914,0.785828,2.288818
0.188613,0.017090,0.994019,-0.120850,0.392914,-3.154755,-3.055573
0.188760,0.015625,0.997681,-0.118408,0.000000,1.182556,0.381470
0.188907,0.009277,0.995605,-0.113892,1.174927,-1.579285,-1.529694
0.189054,0.013672,0.997681,-0.115234,-1.564026,1.968384,-0.766754
0.189201,0.018188,1.003784,-0.113892,0.000000,-1.579285,1.907349
0.189348,0.017578,0.997803,-0.115234,0.782013,1.182556,-1.148224
0.189495,0.015015,0.996460,-0.118774,-0.782013,-0.396729,-0.766754
0.189642,0.010498,0.998413,-0.121460,1.564026,-1.186371,0.381470
0.189788,0.013672,0.996460,-0.118774,-0.392914,-0.789642,-1.529694
0.189936,0.013916,1.004395,-0.119751,1.564026,0.392914,-0.385284
0.190083,0.017822,1.004517,-0.121704,-3.131866,0.000000,0.000000
0.190230,0.010620,1.000732,-0.120117,1.174927,0.000000,-0.766754
0.190376,0.016846,0.994751,-0.118042,-0.782013,1.575470,0.381470
0.190524,0.016357,0.994995,-0.115845,0.000000,-0.396729,0.000000
0.190670,0.013550,0.997314,-0.119629,0.392914,-2.368927,-0.385284
0.190816,0.013062,1.000488,-0.121338,-1.564026,1.968384,-0.385284
0.190963,0.013916,0.999390,-0.121704,1.956940,-3.154755,-0.766754
0.191110,0.010986,0.991455,-0.123047,0.392914,0.000000,-1.529694
0.191257,0.013428,0.994385,-0.122437,-1.174927,2.365112,0.381470
0.191404,0.016479,0.998169,-0.115601,0.782013,-0.396729,-1.148224
0.191551,0.009033,1.000366,-0.113403,-1.174927,-1.186371,0.762939
0.191698,0.014771,1.004761,-0.116821,1.564026,0.785828,-0.385284
0.191845,0.010986,0.997437,-0.120239,-1.564026,0.000000,0.381470
0.191992,0.013184,0.998779,-0.121826,1.564026,-0.789642,-1.529694
0.192139,0.017334,0.999756,-0.117188,0.392914,-1.579285,0.000000
0.192286,0.018921,0.993286,-0.115234,-1.956940,1.182556,-0.766754
0.192433,0.020386,0.995605,-0.118530,1.174927,0.000000,0.000000
0.192581,0.021851,0.999390,-0.117310,1.174927,1.182556,-0.385284
0.192727,0.018066,1.001953,-0.117920,-1.956940,-1.579285,1.144409
0.192874,0.014526,0.999756,-0.119751,0.782013,0.785828,-2.674103
0.193021,0.019287,0.999756,-0.118896,0.392914,0.392914,1.907349
0.193167,0.019897,0.997192,-0.119629,0.000000,-3.551483,-1.148224
0.193315,0.010864,0.996948,-0.114990,0.392914,2.365112,-1.529694
0.193461,0.013672,1.002441,-0.116211,-0.392914,-2.368927,-0.766754
0.193609,0.015381,0.998413,-0.121948,-0.392914,2.365112,-0.385284
0.193755,0.011108,0.994751,-0.120972,-1.174927,-0.789642,0.381470
0.193902,0.012329,0.999268,-0.115845,2.738953,0.785828,-1.148224
0.194049,0.010986,0.998779,-0.114014,-1.956940,0.000000,1.144409
0.194196,0.007812,1.001221,-0.118042,-0.392914,-1.579285,-0.385284
0.194343,0.008179,0.996948,-0.115723,2.349854,-1.579285,-2.674103
0.194491,0.014038,0.990479,-0.112305,-0.782013,1.968384,1.525879
0.194638,0.009521,0.998047,-0.114868,0.392914,-1.972198,-1.911163
0.194785,0.001709,1.002930,-0.121460,-1.956940,2.365112,0.762939
0.194932,0.008179,0.998169,-0.119507,2.349854,-2.761841,-2.292633
0.195079,0.013916,0.996582,-0.116211,-2.349854,3.547668,3.814697
0.195226,0.010986,0.996948,-0.119507,2.738953,-3.154755,-4.199982
0.195373,0.010254,0.994995,-0.121094,-2.738953,0.000000,0.762939
0.195520,0.016968,0.999390,-0.119995,1.564026,0.000000,-0.385284
0.195666,0.007812,1.002930,-0.120239,-0.392914,-0.789642,0.000000
0.195814,0.008301,0.997437,-0.123291,1.956940,0.785828,-1.148224
0.195998,0.015015,0.996216,-0.120117,-2.738953,0.000000,-0.385284
0.196524,0.015625,1.002686,-0.118164,-0.782013,-0.396729,0.381470
0.196706,0.017334,1.002930,-0.119629,3.131866,0.000000,-3.055573
0.196850,0.012329,1.003540,-0.117554,-2.349854,-1.186371,1.144409
0.196995,0.012573,1.002930,-0.121338,0.782013,1.182556,0.000000
0.197139,0.015869,0.995117,-0.118408,-0.782013,-0.396729,-0.766754
0.197316,0.014648,0.998047,-0.112793,-1.174927,3.547668,0.762939
0.197497,0.022217,1.006836,-0.118286,0.782013,-3.551483,-2.292633
0.197574,0.022217,1.000610,-0.116333,1.174927,0.785828,0.381470
0.197727,0.011841,0.992310,-0.116943,0.000000,-1.972198,-1.148224
0.197874,0.006104,0.991821,-0.116211,0.392914,0.785828,-1.148224
0.198076,0.005737,0.993774,-0.113403,-0.392914,-1.186371,1.525879
0.198165,0.005737,0.996338,-0.117554,0.000000,-0.789642,-0.766754
0.198316,0.006958,0.996582,-0.121582,-0.392914,1.968384,-0.766754
0.199412,0.019287,0.997437,-0.120972,-0.782013,-2.143860,0.000000
0.199488,0.019287,0.991943,-0.121582,-0.782013,-2.368927,-1.148224
0.199637,0.019165,0.997681,-0.119507,-3.131866,3.150940,1.525879
0.199783,0.018921,1.003784,-0.118774,0.392914,-0.396729,-1.148224
0.199936,0.012329,1.000610,-0.120117,1.564026,-1.186371,-1.529694
0.200077,0.012573,0.994019,-0.121582,0.392914,0.392914,-0.385284
0.200224,0.010986,0.995972,-0.120117,0.782013,-1.972198,-1.911163
0.200371,0.009521,0.997437,-0.119873,-0.782013,1.575470,1.525879
0.200518,0.016968,0.994995,-0.119995,1.956940,-3.154755,-0.766754
0.200665,0.015259,1.002563,-0.122437,-2.738953,3.150940,-0.385284
0.200812,0.012573,0.996948,-0.121948,0.000000,-1.186371,-1.148224
0.200959,0.013062,0.990112,-0.117920,-0.392914,-0.396729,0.000000
0.201106,0.019531,0.992554,-0.121216,1.564026,0.392914,-1.529694
0.201253,0.018311,0.997925,-0.121338,0.000000,-0.789642,-1.148224
0.201400,0.014771,0.998291,-0.120972,-0.392914,-1.972198,0.381470
0.201547,0.020630,0.992554,-0.122314,0.392914,0.785828,-1.148224
0.201693,0.017822,0.998413,-0.117065,-0.782013,1.182556,1.144409
0.201840,0.015381,1.000610,-0.115967,0.392914,-1.186371,-1.529694
0.201988,0.010132,1.000000,-0.119873,-2.349854,1.575470,1.907349
0.202134,0.013916,0.996460,-0.114502,3.520966,0.000000,-4.199982
0.202281,0.018799,0.994507,-0.114990,-1.564026,-1.972198,2.288818
0.202428,0.009155,0.996826,-0.117920,1.956940,-1.186371,-1.911163
0.202576,0.013672,0.991821,-0.118286,-1.564026,0.785828,-1.148224
0.202723,0.015259,0.993164,-0.120972,0.392914,-0.396729,0.762939
0.202870,0.011841,0.994873,-0.114014,1.174927,-0.396729,-0.385284
0.203017,0.014160,0.989868,-0.114136,-3.131866,1.182556,0.381470
0.203164,0.007324,0.997559,-0.123169,0.000000,1.182556,-1.529694
0.203310,0.007446,1.005493,-0.126099,2.738953,-1.972198,-1.148224
0.203457,0.012207,1.000122,-0.123779,-0.392914,0.785828,0.381470
0.203604,0.012451,0.999634,-0.120361,-0.782013,-1.579285,0.000000
0.203751,0.014893,1.003296,-0.118042,0.000000,0.392914,-0.385284
0.203898,0.016235,0.999146,-0.116211,1.174927,0.000000,-0.766754
0.204045,0.017822,0.995483,-0.118408,-2.349854,1.575470,0.000000
0.204192,0.016357,0.996460,-0.120483,0.782013,-0.396729,0.381470
0.204339,0.020996,0.994873,-0.119995,1.174927,-2.761841,-2.674103
0.204486,0.016357,0.995605,-0.121338,-2.349854,3.940582,1.525879
0.204633,0.009644,0.998779,-0.121704,3.131866,-4.734039,-2.292633
0.204780,0.013428,0.998657,-0.122314,-1.174927,2.365112,1.144409
0.204927,0.011841,1.001587,-0.119873,0.392914,-0.396729,0.381470
0.205074,0.011597,1.002686,-0.123901,-1.174927,-0.396729,-1.148224
0.205221,0.010254,0.998657,-0.128662,1.564026,1.182556,-1.529694
0.205368,0.009521,0.995605,-0.121094,-0.392914,-1.579285,0.762939
0.205515,0.011230,0.995239,-0.122314,-3.131866,0.392914,-0.766754
0.205662,0.011841,0.992188,-0.120972,2.738953,-0.789642,-2.292633
0.205809,0.014771,0.992554,-0.113403,0.782013,-1.972198,-0.385284
0.205956,0.007080,1.001587,-0.115479,-0.392914,0.785828,0.762939
0.206169,0.013184,1.005127,-0.116821,-0.392914,1.575470,0.381470
0.206246,0.013184,1.003296,-0.115967,0.000000,-2.368927,-1.911163
0.206398,0.013794,0.999878,-0.114258,-0.782013,1.575470,0.381470
0.206543,0.020630,0.997925,-0.114380,-0.392914,0.000000,-0.766754
0.206690,0.012451,0.997070,-0.117798,0.392914,-1.579285,-0.766754
0.206837,0.010742,0.997437,-0.119385,0.782013,0.000000,-0.385284
0.206984,0.016357,1.002197,-0.122314,0.782013,-0.789642,-1.529694
0.207131,0.019409,1.003906,-0.122681,-0.782013,0.785828,2.670288
0.207278,0.015625,1.000366,-0.117920,0.000000,-2.368927,-3.437042
0.207425,0.010620,0.999146,-0.115845,1.174927,2.365112,2.288818
0.207572,0.015381,0.998169,-0.121094,-2.738953,0.000000,-1.529694
0.207718,0.013062,0.999023,-0.121460,1.564026,-1.579285,-0.766754
0.207866,0.015747,0.997559,-0.114624,0.000000,0.000000,0.000000
0.208012,0.020142,0.993652,-0.115356,-0.782013,0.392914,0.762939
0.208159,0.017334,0.993652,-0.114136,1.956940,-2.761841,-4.199982
0.208306,0.014771,1.000366,-0.114746,-1.956940,1.182556,1.907349
0.208453,0.013916,0.999023,-0.116577,0.392914,0.000000,-0.385284
0.208600,0.012451,0.991943,-0.116455,0.392914,0.000000,0.000000
0.208747,0.015259,0.992676,-0.120117,-0.392914,-1.579285,1.144409
0.208894,0.018188,0.992920,-0.116211,0.392914,1.182556,-2.674103
0.209041,0.008301,0.997803,-0.112427,-0.782013,0.000000,0.762939
0.209188,0.017212,0.996948,-0.114502,1.956940,-1.579285,-1.911163
0.209335,0.016846,0.994995,-0.119873,0.392914,0.392914,0.381470
0.209482,0.012573,1.001587,-0.122681,-1.564026,-1.579285,-0.385284
0.209629,0.018066,0.999512,-0.121094,0.000000,2.365112,1.144409
0.209776,0.022217,0.999878,-0.120850,3.520966,-1.972198,-2.292633
0.209923,0.015381,0.996460,-0.115967,-3.520966,0.392914,0.381470
0.210070,0.009766,0.993164,-0.118164,-0.392914,0.392914,-0.385284
0.210217,0.016479,0.996338,-0.122437,1.564026,-1.972198,-1.148224
0.210364,0.017212,0.996216,-0.117676,-1.564026,3.150940,0.381470
0.210512,0.017334,0.991699,-0.115723,2.349854,-3.551483,-1.529694
0.210658,0.010864,0.992798,-0.114380,-1.174927,1.182556,0.381470
0.210805,0.010376,0.999023,-0.118530,-1.174927,0.392914,-0.766754
0.210952,0.013672,0.996826,-0.119385,0.392914,-0.396729,0.381470
0.211099,0.021729,0.995728,-0.116943,0.392914,-0.396729,-1.148224
0.211246,0.021240,0.995850,-0.118042,1.564026,-1.186371,-0.385284
0.211393,0.015869,0.995850,-0.114624,-0.782013,0.392914,-0.766754
0.211540,0.014160,0.995117,-0.117310,0.000000,0.785828,0.000000
0.211686,0.016602,0.997192,-0.118530,-0.782013,0.000000,2.670288
0.211834,0.018555,0.995117,-0.114868,0.782013,-1.186371,-2.674103
0.211980,0.015259,0.992920,-0.118774,-1.174927,0.785828,0.000000
0.212127,0.018311,0.996094,-0.121826,-1.174927,-0.396729,0.000000
0.212274,0.015015,0.997803,-0.119751,1.956940,0.392914,-0.766754
0.212421,0.013428,1.001709,-0.114014,-0.392914,-1.972198,-1.911163
0.212568,0.019409,1.001221,-0.113159,0.392914,0.000000,-0.766754
0.212715,0.019409,1.001465,-0.115479,-2.349854,1.575470,1.525879
0.212862,0.017456,0.996826,-0.115479,1.564026,-0.789642,-0.385284
0.213009,0.016235,0.991211,-0.116943,0.392914,-0.789642,-0.766754
0.213156,0.015381,0.998657,-0.115967,-0.782013,1.575470,0.381470
0.213303,0.012207,0.997559,-0.117432,0.782013,-2.761841,-2.674103
0.213450,0.016113,0.995361,-0.120605,0.000000,2.365112,1.525879
0.213597,0.020264,0.994995,-0.121338,0.000000,-2.761841,-2.674103
0.213744,0.015503,0.998291,-0.118530,-1.174927,1.182556,0.381470
0.213891,0.016724,1.002075,-0.114502,1.956940,-0.789642,0.000000
0.214038,0.017578,0.996826,-0.120972,-1.564026,0.785828,1.525879
0.214185,0.014038,0.991943,-0.121826,1.564026,-2.368927,-2.674103
0.214331,0.013184,0.992676,-0.116943,-2.738953,3.150940,0.762939
0.214479,0.013184,0.998291,-0.120239,3.131866,-2.368927,-0.385284
0.214626,0.014526,0.997070,-0.117920,-1.564026,0.785828,-2.674103
0.214772,0.014648,0.998413,-0.117676,0.392914,-1.186371,1.525879
0.214919,0.014648,1.000977,-0.117065,0.392914,0.000000,-1.148224
0.215066,0.015991,0.998047,-0.114136,-0.392914,-0.396729,0.762939
0.215213,0.021729,0.995972,-0.114746,0.782013,-0.396729,-1.529694
0.215360,0.018433,0.995117,-0.117310,0.000000,0.392914,0.381470
0.215507,0.014404,0.999390,-0.116821,-1.174927,0.392914,-1.529694
0.215654,0.020142,1.003052,-0.116333,1.956940,-1.186371,1.144409
0.215801,0.012451,0.994629,-0.117676,0.392914,-1.972198,-2.674103
0.215948,0.005493,0.995728,-0.116333,-2.738953,2.758026,-0.385284
0.216095,0.007812,1.001099,-0.117676,2.738953,-2.761841,0.381470
0.216242,0.011597,0.994019,-0.120605,-2.349854,-0.789642,-0.766754
0.216389,0.016602,0.997070,-0.116333,0.782013,3.150940,0.762939
0.216536,0.018555,1.003662,-0.113037,0.392914,-2.368927,0.381470
0.216683,0.016724,0.994995,-0.117065,1.956940,-0.396729,-1.911163
0.216829,0.022217,0.994141,-0.116821,-0.392914,0.785828,-1.148224
0.216977,0.018188,0.997925,-0.115601,1.564026,-1.972198,-0.766754
0.217124,0.011963,1.000488,-0.119751,-4.306793,0.785828,1.525879
0.217271,0.016968,0.999390,-0.119873,0.782013,0.000000,-1.148224
0.217417,0.016968,0.996704,-0.119141,0.782013,0.000000,-0.385284
0.217564,0.016357,0.994385,-0.120239,0.392914,0.000000,0.381470
0.217711,0.013794,0.990845,-0.120117,-0.392914,-0.789642,-0.766754
0.217858,0.015381,0.996704,-0.123047,-0.782013,-0.396729,-0.385284
0.218005,0.014282,0.995972,-0.119507,1.956940,1.182556,-1.148224
0.218152,0.011597,0.991089,-0.117676,0.782013,-2.368927,-1.148224
0.218299,0.014648,0.991211,-0.118530,-0.782013,-1.186371,0.000000
0.218449,0.013184,0.992188,-0.117676,-1.956940,2.758026,0.000000
0.218593,0.011719,0.986450,-0.117432,1.564026,-1.579285,0.381470
0.218740,0.017700,0.989868,-0.116821,-1.174927,-0.396729,-0.385284
0.218887,0.018799,0.995972,-0.120972,1.174927,1.968384,-0.766754
0.219033,0.015503,0.994629,-0.117920,-0.782013,-1.186371,-1.148224
0.219180,0.013550,0.999268,-0.118042,0.782013,-1.579285,0.000000
0.219327,0.010498,1.000610,-0.122925,0.000000,0.000000,0.000000
0.219474,0.010132,0.995117,-0.120972,-2.738953,-1.186371,0.381470
0.219621,0.014526,0.994873,-0.121582,1.956940,0.000000,-2.674103
0.219768,0.012817,0.996216,-0.117310,-0.392914,1.575470,1.144409
0.219915,0.011230,0.996704,-0.117310,-0.392914,-1.186371,0.000000
0.220062,0.011963,0.995361,-0.119019,1.174927,0.000000,-1.148224
0.220209,0.011963,0.999512,-0.119263,-1.174927,0.000000,-1.148224
0.220356,0.018311,1.005371,-0.121948,0.392914,-0.396729,-0.766754
0.220503,0.018188,0.993896,-0.117188,1.174927,-1.579285,0.000000
0.220650,0.010864,0.993286,-0.114136,-1.174927,-0.396729,-1.148224
0.220797,0.012939,1.001953,-0.116821,-0.782013,2.365112,2.288818
0.220944,0.016113,0.998657,-0.118774,1.956940,-3.551483,-2.292633
0.221091,0.017090,0.994995,-0.122559,0.392914,1.575470,0.762939
0.221238,0.016357,0.998047,-0.120483,-0.782013,0.000000,-2.292633
0.221385,0.012817,1.000366,-0.116455,0.782013,-0.396729,0.762939
0.221531,0.016235,1.000122,-0.115479,0.000000,-1.186371,-1.911163
0.221678,0.016602,0.995605,-0.112305,-2.349854,-0.789642,0.381470
0.221826,0.013306,0.994873,-0.116211,0.000000,1.575470,1.525879
0.221972,0.014893,0.994751,-0.115479,2.738953,-2.761841,-2.674103
0.222119,0.015137,0.996704,-0.118408,-1.956940,3.150940,0.762939
0.222266,0.016113,0.998901,-0.118774,1.956940,-1.579285,0.381470
0.222416,0.015991,0.997559,-0.119019,-0.392914,-2.368927,-3.055573
0.222561,0.015747,0.998657,-0.122803,-1.564026,3.547668,0.381470
0.222707,0.011230,0.999512,-0.118530,0.782013,-2.761841,-1.911163
0.222854,0.007324,0.998779,-0.117798,0.000000,0.000000,1.144409
0.223001,0.011597,0.997681,-0.119507,-1.174927,1.575470,0.381470
0.223149,0.010254,1.000610,-0.117920,1.174927,-1.972198,-1.148224
0.223295,0.013794,0.996460,-0.115112,-0.392914,1.182556,-0.385284
0.223442,0.012451,0.998779,-0.121094,2.349854,-1.186371,-0.766754
0.223589,0.008179,0.998291,-0.122803,-1.956940,0.392914,0.000000
0.223736,0.011963,0.994629,-0.119995,0.782013,-0.789642,-1.148224
0.223883,0.010132,0.997437,-0.121338,-1.174927,-1.186371,-1.148224
0.224030,0.014893,0.992920,-0.119629,0.392914,1.575470,1.525879
0.224177,0.018311,0.995483,-0.119019,-0.392914,-1.972198,-0.385284
0.224324,0.014282,0.997314,-0.117432,1.956940,1.182556,-0.766754
0.224471,0.013428,0.993652,-0.119263,-0.782013,1.575470,0.762939
0.224622,0.010620,1.001099,-0.120850,0.782013,-2.761841,-2.674103
0.224765,0.008667,1.001099,-0.118408,-0.782013,0.392914,1.525879
0.224912,0.016968,0.998413,-0.119263,-0.392914,1.182556,-1.911163
0.225059,0.015259,1.006104,-0.118774,0.392914,-0.789642,-1.148224
0.225205,0.010132,1.004150,-0.121460,-0.392914,-2.761841,1.144409
0.225352,0.015991,0.997437,-0.121948,1.956940,1.182556,-1.529694
0.225499,0.017456,1.001953,-0.118286,-2.349854,3.150940,2.288818
0.225646,0.017212,0.995483,-0.117920,1.956940,-2.368927,-3.055573
0.225793,0.021606,0.994019,-0.117310,-0.392914,-0.789642,-0.766754
0.225940,0.019897,1.004150,-0.114380,-0.782013,1.182556,1.525879
0.226087,0.012939,0.998657,-0.119263,-1.174927,-1.186371,-0.385284
0.226235,0.011230,0.992920,-0.120850,0.392914,-1.186371,-2.292633
0.226385,0.008789,0.995117,-0.118774,2.349854,1.968384,0.381470
0.226528,0.012695,0.995728,-0.121582,-1.174927,-0.396729,2.288818
0.226675,0.011230,0.998657,-0.122681,2.738953,-0.396729,-2.674103
0.226822,0.009399,0.998413,-0.123901,-1.956940,-0.396729,-1.148224
0.226973,0.013794,0.991455,-0.121582,-0.782013,0.392914,0.000000
0.227117,0.009277,0.993286,-0.120972,1.564026,-1.972198,-1.148224
0.227264,0.010376,0.999756,-0.123291,-0.782013,0.392914,0.000000
0.227411,0.010498,0.997437,-0.121826,-0.392914,0.392914,0.381470
0.227557,0.007568,0.995850,-0.117310,1.174927,1.575470,1.144409
0.227704,0.013916,0.999756,-0.113403,-1.564026,-1.972198,-1.148224
0.227851,0.007446,0.996826,-0.120117,2.738953,0.392914,-1.529694
0.227998,0.014771,1.000366,-0.120483,-2.738953,-0.396729,0.762939
0.228145,0.019775,0.998657,-0.118896,0.782013,-1.186371,-2.674103
0.228292,0.020386,0.993530,-0.120361,-0.782013,0.392914,0.381470
0.228439,0.019775,0.995605,-0.117554,1.564026,0.392914,0.000000
0.228586,0.012695,1.000854,-0.120361,-0.782013,0.392914,0.000000
0.228733,0.014526,0.999512,-0.122192,0.000000,1.182556,0.381470
0.228880,0.019287,1.003052,-0.120605,-0.392914,-2.368927,-1.529694
0.229027,0.019531,1.002075,-0.118896,0.000000,1.968384,0.381470
0.229174,0.014160,0.999390,-0.119263,0.000000,-1.972198,-1.911163
0.229321,0.025879,0.996704,-0.122314,-0.392914,0.392914,0.381470
0.229465,0.021729,0.992676,-0.116333,1.564026,-0.789642,-0.766754
0.229611,0.014648,0.998047,-0.115601,0.782013,-0.789642,-0.766754
0.229758,0.015137,1.000122,-0.118652,0.000000,2.365112,1.144409
0.229905,0.011597,0.999878,-0.117188,-1.174927,-2.761841,-2.292633
0.230052,0.017456,0.998291,-0.118286,-0.782013,3.150940,1.144409
0.230199,0.019287,0.997192,-0.119507,1.174927,-3.944397,-1.529694
0.230346,0.018188,0.994873,-0.119019,-0.782013,1.182556,-1.148224
0.230493,0.016968,0.999146,-0.118530,-1.564026,0.785828,1.525879
0.230640,0.012817,0.999634,-0.119507,1.564026,-1.579285,-1.911163
0.230787,0.016846,0.994385,-0.120850,0.000000,-0.789642,0.381470
0.230933,0.018188,0.995483,-0.119873,0.782013,1.575470,-1.529694
0.231080,0.013306,0.999512,-0.114624,-1.174927,0.392914,0.762939
0.231227,0.011353,0.998047,-0.117798,0.782013,-0.789642,-0.385284
0.231375,0.007935,0.998047,-0.115112,0.000000,-0.396729,-2.292633
0.231521,0.012695,1.001953,-0.114624,-1.564026,0.392914,2.288818
0.231668,0.016846,1.001099,-0.116943,0.782013,-2.761841,-2.292633
0.231816,0.013916,0.996948,-0.118774,0.392914,3.150940,0.000000
0.231963,0.013916,1.000977,-0.119019,1.174927,-1.579285,-0.385284
0.232109,0.017090,0.999023,-0.117188,-1.956940,1.182556,0.000000
0.232256,0.020874,0.996094,-0.118286,1.174927,-1.186371,0.381470
0.232404,0.020264,0.999634,-0.119141,-1.174927,-0.396729,-1.911163
0.232550,0.017090,0.999756,-0.115967,0.782013,1.575470,2.288818
0.232698,0.016357,1.002197,-0.119263,0.392914,-0.789642,-2.674103
0.232844,0.015259,0.998169,-0.119019,-0.782013,-2.368927,0.000000
0.232990,0.007568,1.000488,-0.117798,-0.392914,2.365112,1.144409
0.233138,0.010864,0.999390,-0.120850,2.349854,-0.789642,-2.674103
0.233285,0.019531,0.992432,-0.116943,-1.956940,0.000000,1.907349
0.233432,0.015869,0.994263,-0.115967,0.000000,-0.789642,-1.148224
0.233579,0.019775,0.998291,-0.114258,-0.392914,0.785828,0.381470
0.233726,0.019287,1.002441,-0.117920,0.392914,-0.789642,-2.292633
0.233873,0.017822,1.000244,-0.121460,0.392914,-0.396729,-0.385284
0.234020,0.018188,0.996338,-0.121216,-0.392914,0.000000,-0.385284
0.234167,0.011230,0.994873,-0.115356,-1.174927,0.392914,1.907349
0.234314,0.011963,0.999390,-0.113892,2.738953,-0.396729,-1.529694
0.234460,0.020752,1.003296,-0.120117,-1.174927,-0.789642,-2.292633
0.234606,0.016968,0.998779,-0.117188,-1.956940,0.392914,0.381470
0.234752,0.015015,0.996704,-0.113770,0.782013,0.392914,-0.766754
0.234900,0.018677,0.999390,-0.116333,0.392914,-0.789642,-0.766754
0.235047,0.014160,0.998047,-0.116211,0.782013,-1.579285,0.762939
0.235193,0.015625,0.990234,-0.115967,-1.564026,1.968384,-0.766754
0.235340,0.013428,0.994995,-0.117432,2.349854,-0.789642,-0.385284
0.235487,0.013794,1.003906,-0.117432,-0.392914,0.785828,0.762939
0.235635,0.012573,1.000854,-0.122070,-0.782013,-1.972198,0.000000
0.235781,0.011719,0.997437,-0.119873,0.782013,0.392914,-3.818512
0.235928,0.010986,1.000854,-0.118530,-1.564026,0.785828,3.433228
0.236075,0.014160,0.998779,-0.121582,1.174927,-1.972198,-5.344391
0.236222,0.022583,0.997681,-0.118652,-0.782013,3.547668,3.814697
0.236369,0.016846,1.003906,-0.120483,0.392914,-4.337311,-1.911163
0.236516,0.009399,1.000610,-0.121704,0.392914,2.758026,-0.766754
0.236663,0.012085,1.000732,-0.119385,-0.392914,-2.368927,0.762939
0.236810,0.011108,0.997803,-0.118408,-1.174927,3.547668,-0.385284
0.236957,0.007690,0.994629,-0.117798,0.392914,-3.944397,-1.148224
0.237104,0.005371,0.997559,-0.117310,1.174927,-0.396729,-1.148224
0.237251,0.012451,0.998901,-0.118652,0.000000,1.575470,-0.385284
0.237398,0.021484,0.998291,-0.114502,-2.349854,0.785828,1.907349
0.237545,0.019897,0.998657,-0.113892,1.564026,-2.368927,-2.674103
0.237691,0.014404,1.002319,-0.119751,2.349854,1.575470,0.381470
0.237834,0.007324,0.992798,-0.115234,-2.738953,-0.789642,1.525879
0.237986,0.009521,0.992676,-0.113525,1.174927,-1.186371,-2.292633
0.238132,0.014038,1.002563,-0.116821,-0.392914,0.000000,-0.385284
0.238279,0.015869,1.002563,-0.120605,-0.782013,1.182556,0.762939
0.238427,0.016846,1.000610,-0.119873,0.392914,-3.154755,-2.292633
0.238640,0.012329,1.001465,-0.119507,0.392914,1.968384,0.762939
0.238719,0.012329,1.003540,-0.119019,-1.174927,0.392914,-0.385284
0.238871,0.015991,0.998657,-0.115723,1.564026,0.000000,0.000000
0.239011,0.018921,0.999878,-0.115112,-0.782013,-0.789642,-0.766754
0.239157,0.013306,1.003906,-0.116089,-0.392914,-1.186371,1.144409
0.239310,0.014526,1.002686,-0.119141,-0.392914,-0.396729,-1.148224
0.239456,0.017090,0.996582,-0.118042,0.782013,0.785828,-1.148224
0.239604,0.011963,0.995972,-0.119751,1.174927,-0.789642,-0.766754
0.239751,0.010986,0.997192,-0.120361,-0.782013,0.000000,-0.385284
0.239897,0.009521,0.995117,-0.120728,-0.392914,1.968384,1.907349
0.240045,0.019043,1.003296,-0.121582,0.392914,-1.186371,-2.292633
0.240192,0.019897,1.003662,-0.124756,-0.782013,0.785828,2.288818
0.240339,0.014282,1.000000,-0.120117,1.174927,-0.789642,-2.292633
0.240485,0.016235,1.000366,-0.114502,-0.782013,-0.396729,-1.148224
0.240632,0.017456,0.994141,-0.116089,-0.392914,-0.396729,0.381470
0.240780,0.015503,0.998535,-0.116333,0.000000,-0.789642,0.381470
0.240926,0.011841,1.003784,-0.117676,-0.782013,1.968384,0.000000
0.241073,0.014526,0.998535,-0.118042,2.738953,-3.944397,-1.911163
0.241220,0.013550,0.998535,-0.119995,-2.349854,2.365112,0.000000
0.241367,0.013062,0.999878,-0.120850,-0.392914,0.392914,0.762939
0.241514,0.014648,0.997559,-0.120117,0.392914,-0.396729,-1.148224
0.241661,0.009644,0.996460,-0.115234,0.782013,-1.579285,-0.385284
0.241808,0.009155,0.992676,-0.116455,-1.956940,0.785828,-0.385284
0.241955,0.013184,0.995117,-0.119629,1.564026,0.000000,-0.385284
0.242102,0.010986,0.997192,-0.120972,-0.782013,-2.761841,-1.148224
0.242249,0.010254,0.993408,-0.122192,0.392914,1.968384,1.144409
0.242395,0.010986,0.999756,-0.119507,-1.174927,0.785828,-1.148224
0.242542,0.014893,0.998535,-0.120483,1.956940,-0.396729,-0.766754
0.242690,0.013062,0.999878,-0.119995,-1.564026,0.000000,0.381470
0.242837,0.013916,0.998901,-0.121948,1.174927,-1.579285,-1.148224
0.242987,0.020874,0.999390,-0.123169,-1.174927,0.392914,0.000000
0.243130,0.015869,1.002319,-0.119507,0.392914,-0.789642,-1.148224
0.243277,0.009521,0.995728,-0.116943,0.392914,0.392914,0.381470
0.243424,0.009277,0.995605,-0.115601,0.392914,-0.789642,0.381470
0.243572,0.017090,1.000854,-0.117920,0.392914,0.785828,-0.766754
0.243719,0.016602,0.998413,-0.117920,-1.174927,-0.396729,-2.292633
0.243865,0.008789,0.999634,-0.120483,0.392914,0.392914,1.525879
0.244012,0.010620,1.000122,-0.117798,-2.349854,-1.579285,0.000000
0.244159,0.015625,0.993164,-0.115845,3.131866,-1.186371,-3.437042
0.244306,0.012695,0.995361,-0.117432,-1.564026,2.365112,2.288818
0.244453,0.013062,0.996338,-0.120239,1.174927,-1.579285,-0.766754
0.244600,0.015625,0.995972,-0.119751,0.000000,0.785828,-0.385284
0.244746,0.009155,1.000732,-0.115356,0.000000,0.000000,-0.766754
0.244893,0.010132,1.000610,-0.117065,-1.174927,-0.789642,-0.766754
0.245040,0.012695,1.000732,-0.118652,1.956940,-0.396729,0.381470
0.245188,0.016846,0.998535,-0.117188,-2.349854,-0.789642,-1.529694
0.245334,0.015259,0.997070,-0.115112,1.956940,-0.396729,-0.385284
0.245481,0.014282,1.000977,-0.114990,-1.174927,1.968384,1.144409
0.245629,0.021851,0.996216,-0.119995,1.174927,-2.761841,-1.529694
0.245776,0.015869,0.991455,-0.121948,-0.782013,1.182556,0.762939
0.245922,0.010620,0.995728,-0.119263,1.174927,-0.396729,-1.911163
0.246069,0.014771,0.999023,-0.116699,-2.738953,1.968384,0.762939
0.246216,0.013428,0.996826,-0.118164,1.956940,-2.368927,-0.385284
0.246363,0.011963,1.000732,-0.118896,-1.174927,-1.186371,-0.385284
0.246511,0.019043,0.998169,-0.117188,0.392914,1.575470,-0.385284
0.246657,0.012207,0.998047,-0.122192,-1.174927,-2.368927,-2.292633
0.246804,0.018311,0.998779,-0.120483,0.782013,3.150940,4.196167
0.246951,0.016357,0.998413,-0.119263,0.782013,-2.761841,-4.199982
0.247099,0.015259,0.997559,-0.120972,0.392914,0.392914,0.000000
0.247245,0.011475,0.995117,-0.115479,-1.564026,0.785828,0.381470
0.247391,0.008667,1.001587,-0.118408,1.174927,-1.972198,-1.148224
0.247539,0.003174,0.999512,-0.116943,-2.738953,1.182556,1.907349
0.247685,0.016357,1.004517,-0.113403,2.738953,-1.579285,-2.292633
0.247832,0.029907,1.002441,-0.119019,-1.564026,1.182556,0.762939
0.247980,0.019531,0.998901,-0.115967,-0.392914,0.000000,-0.385284
0.248127,0.020386,0.997681,-0.118164,1.564026,-2.368927,-1.911163
0.248274,0.016235,0.996094,-0.120972,-1.564026,2.758026,-0.385284
0.248421,0.015015,0.998291,-0.119385,1.564026,-1.972198,-1.148224
0.248567,0.014771,0.994629,-0.118774,-0.392914,-0.396729,-0.385284
0.248715,0.013062,0.999878,-0.116821,-1.174927,1.182556,0.762939
0.248862,0.007568,1.002441,-0.116699,0.392914,-1.972198,1.525879
0.249008,0.012573,1.000977,-0.119873,0.000000,1.182556,-2.292633
0.249156,0.008423,0.999146,-0.120972,0.782013,-0.789642,-0.385284
0.249302,0.012939,1.000732,-0.116577,-0.782013,0.000000,-1.148224
0.249449,0.010376,1.002808,-0.118652,0.392914,0.000000,0.381470
0.249596,0.008423,1.000000,-0.123291,0.782013,0.392914,-0.766754
0.249743,0.013184,0.996094,-0.120483,-0.392914,-1.579285,-0.385284
0.249889,0.011230,0.996826,-0.117920,0.392914,1.968384,0.381470
0.250037,0.012573,0.993896,-0.118042,0.000000,-1.579285,-0.766754
0.250184,0.019043,0.997070,-0.116455,-1.564026,-0.396729,-0.385284
0.250331,0.018555,0.997314,-0.117920,1.956940,0.785828,-0.766754
0.250478,0.013550,0.991943,-0.120117,-1.174927,-1.972198,-0.766754
0.250625,0.012695,0.996948,-0.116577,-0.782013,2.758026,0.000000
0.250771,0.014404,1.000977,-0.113647,1.956940,-0.396729,0.381470
0.250919,0.015381,0.996582,-0.113892,1.564026,-3.154755,-2.674103
0.251065,0.018188,1.000122,-0.115845,-3.913879,1.575470,3.051758
0.251212,0.019043,1.000244,-0.118530,1.564026,-0.789642,-3.437042
0.251360,0.010498,0.994141,-0.118408,0.000000,0.785828,1.144409
0.251507,0.011719,0.995605,-0.117798,-1.174927,0.392914,0.381470
0.251654,0.018433,0.998413,-0.119873,2.349854,-0.396729,-1.529694
0.251800,0.017090,1.005981,-0.116699,-0.392914,-0.789642,-0.766754
0.251947,0.009644,1.002441,-0.114258,-1.174927,-1.579285,-1.148224
0.252094,0.022339,0.999634,-0.117554,1.564026,3.150940,1.525879
0.252241,0.026245,0.993774,-0.120239,-0.782013,-3.154755,-0.766754
0.252389,0.017456,0.994019,-0.121826,0.782013,1.968384,-1.529694
0.252535,0.015625,0.999512,-0.114380,-1.174927,0.000000,1.525879
0.252682,0.011353,0.995117,-0.113647,1.174927,-2.368927,-3.055573
0.252828,0.020020,0.996582,-0.118408,-0.782013,2.365112,0.381470
0.252976,0.018433,1.000366,-0.115479,1.956940,-3.154755,-1.529694
0.253123,0.009399,0.997192,-0.119751,-1.564026,2.758026,3.051758
0.253270,0.015015,0.994507,-0.124146,0.782013,-1.579285,-3.437042
0.253417,0.013306,1.001099,-0.122192,0.000000,-1.972198,-0.385284
0.253563,0.014526,1.005005,-0.120605,-0.392914,1.182556,0.381470
0.253711,0.016357,1.000122,-0.120972,-0.392914,1.182556,0.762939
0.253857,0.019409,0.999268,-0.119751,0.392914,-1.186371,-4.962921
0.254005,0.022705,1.003906,-0.119629,-0.392914,1.182556,2.670288
0.254151,0.013794,1.000244,-0.122192,1.564026,-1.579285,-1.148224
0.254299,0.013062,0.994873,-0.121704,-0.782013,0.785828,0.762939
0.254449,0.014648,1.000977,-0.120850,-0.392914,0.000000,-0.766754
0.254593,0.016357,1.002197,-0.119873,1.174927,-1.186371,-2.292633
0.254739,0.012085,0.997192,-0.118164,-2.349854,0.392914,1.525879
0.254886,0.011963,0.994873,-0.119629,0.392914,0.392914,-1.148224
0.255033,0.017578,0.992432,-0.121094,1.564026,-1.972198,-1.148224
0.255180,0.015259,0.993530,-0.114746,-0.782013,1.575470,-0.766754
0.255327,0.010498,0.996826,-0.113159,0.392914,-2.368927,1.144409
0.255474,0.009888,0.999878,-0.116943,0.000000,2.758026,-1.148224
0.255621,0.018555,0.998901,-0.119751,0.000000,-2.761841,0.762939
0.255768,0.017334,0.999390,-0.119263,-0.392914,1.182556,-0.766754
0.255915,0.008423,1.005859,-0.116333,-1.564026,-1.186371,-1.911163
0.256061,0.009033,1.005737,-0.116211,1.174927,0.785828,0.381470
0.256209,0.012451,1.003052,-0.114136,1.174927,-0.396729,-1.911163
0.256355,0.010254,1.001831,-0.116211,-0.392914,0.000000,0.381470
0.256503,0.015991,0.995972,-0.117310,2.738953,-0.396729,0.381470
0.256650,0.019653,0.990112,-0.119995,-3.913879,-0.789642,-0.766754
0.256797,0.013672,0.993896,-0.117676,1.956940,-0.789642,-0.385284
0.256944,0.014038,0.998779,-0.116333,-1.956940,3.150940,1.144409
0.257090,0.014526,0.997192,-0.121582,1.564026,-2.761841,-3.818512
0.257237,0.015747,0.997681,-0.123291,-1.174927,-0.396729,1.525879
0.257385,0.023682,1.002808,-0.122925,0.000000,2.365112,0.000000
0.257532,0.020996,1.001465,-0.120361,0.782013,-0.789642,-0.766754
0.257678,0.013916,1.002197,-0.117310,0.782013,0.392914,0.000000
0.257825,0.014038,1.001465,-0.115112,-0.782013,-1.579285,-1.148224
0.257972,0.017090,0.996826,-0.120361,0.000000,1.575470,0.762939
0.258119,0.014160,0.998291,-0.121094,0.392914,-2.368927,-0.766754
0.258266,0.012451,0.996460,-0.118286,-0.392914,1.968384,-1.148224
0.258415,0.014893,0.993042,-0.113281,0.000000,-2.368927,-1.148224
0.258560,0.018677,0.994263,-0.109497,0.782013,1.968384,1.144409
0.258707,0.014526,0.994019,-0.114746,0.000000,-1.579285,-1.529694
0.258854,0.010498,0.993408,-0.118896,-1.956940,1.575470,2.288818
0.259000,0.013794,1.000854,-0.119507,2.349854,-1.186371,-2.674103
0.259147,0.008179,1.000854,-0.119751,-0.782013,0.000000,0.381470
0.259294,0.007690,0.999878,-0.118164,0.782013,-1.579285,-1.911163
0.259442,0.014526,0.996460,-0.121094,-3.520966,1.182556,2.670288
0.259589,0.015625,0.994873,-0.116211,2.349854,-0.396729,-2.674103
0.259736,0.017700,0.996582,-0.117065,0.782013,0.785828,-1.529694
0.259880,0.018921,0.991211,-0.120483,0.392914,-3.154755,1.907349
0.260030,0.013428,0.993408,-0.116089,-1.956940,1.575470,-0.766754
0.260176,0.015259,1.002197,-0.118164,2.349854,-1.579285,-1.529694
0.260323,0.021729,1.003784,-0.117798,-1.956940,1.968384,1.525879
0.260471,0.017700,0.997925,-0.118042,1.174927,-1.186371,-1.529694
0.260618,0.014404,0.991455,-0.118652,-0.392914,-1.972198,-1.148224
0.260764,0.022583,0.991943,-0.121582,0.392914,3.150940,1.907349
0.260911,0.016235,0.994019,-0.120850,1.564026,-3.154755,-2.674103
0.261057,0.014282,0.993774,-0.114136,-1.564026,0.785828,1.525879
0.261205,0.018311,0.997070,-0.114136,0.392914,0.785828,-0.385284
0.261356,0.015381,0.998047,-0.117188,-1.174927,-1.186371,0.000000
0.261499,0.011841,0.999023,-0.113647,1.174927,-0.789642,-1.911163
0.261645,0.012451,0.998169,-0.116089,-0.392914,1.182556,0.000000
0.261793,0.020874,0.993286,-0.118408,0.000000,-3.154755,-1.529694
0.261940,0.014160,0.989624,-0.115967,1.174927,3.547668,0.381470
0.262086,0.009277,0.991211,-0.116821,-0.392914,-1.972198,0.762939
0.262234,0.015747,0.997559,-0.114868,-0.392914,0.392914,-1.148224
0.262382,0.011841,0.999634,-0.112671,0.392914,0.392914,0.762939
0.262529,0.011597,1.001465,-0.116455,-2.349854,-0.396729,-2.674103
0.262674,0.014160,1.005249,-0.119995,2.349854,-1.579285,0.381470
0.262822,0.011963,1.004272,-0.118408,-0.392914,0.392914,0.381470
0.262969,0.014404,1.004395,-0.120972,-0.392914,0.000000,-1.148224
0.263116,0.017090,1.004761,-0.119385,0.392914,0.785828,0.381470
0.263262,0.015869,0.997803,-0.121216,1.564026,-0.789642,-1.148224
0.263410,0.019409,0.995728,-0.120972,-1.174927,-1.186371,0.762939
0.263557,0.020630,0.995483,-0.117310,-1.174927,0.785828,-0.385284
0.263703,0.017578,0.996704,-0.122192,0.782013,0.392914,-0.385284
0.263850,0.015869,0.998291,-0.120850,0.000000,0.392914,-0.766754
0.263998,0.017944,1.001099,-0.119873,0.000000,-1.579285,0.000000
0.264144,0.022949,0.999390,-0.120361,-0.782013,0.785828,-2.292633
0.264291,0.020386,0.999878,-0.119751,0.782013,-0.396729,1.525879
0.264438,0.015991,1.000000,-0.116089,0.392914,0.392914,-0.385284
0.264585,0.016602,0.998535,-0.119873,-1.174927,-1.579285,-1.529694
0.264732,0.020508,1.004150,-0.121582,0.782013,1.182556,0.000000
0.264879,0.023193,1.001831,-0.118042,-1.174927,-1.186371,1.907349
0.265026,0.018066,0.996948,-0.120850,1.174927,-0.396729,-3.437042
0.265173,0.012451,1.003174,-0.121582,-0.392914,0.000000,1.907349
0.265319,0.013184,1.002319,-0.118408,-0.782013,0.392914,-1.148224
0.265467,0.003540,1.000366,-0.117065,0.782013,-1.579285,-1.148224
0.265614,0.014160,0.998047,-0.117676,-0.392914,1.182556,0.762939
0.265761,0.011108,0.994507,-0.116333,0.392914,0.000000,-1.529694
0.265908,0.011230,0.998291,-0.118408,-1.564026,-0.396729,1.907349
0.266055,0.016479,0.998169,-0.116699,1.956940,0.785828,-3.055573
0.266201,0.017578,1.001465,-0.112549,-0.782013,-1.186371,1.144409
0.266348,0.019287,1.000000,-0.113037,-0.392914,0.000000,0.000000
0.266495,0.018799,0.995361,-0.115234,1.564026,-1.579285,-2.292633
0.266640,0.021606,1.001099,-0.115234,-1.174927,2.758026,1.525879
0.266787,0.015991,1.000854,-0.113525,0.392914,-1.972198,-1.911163
0.266934,0.022583,0.993164,-0.118286,-1.174927,1.968384,0.381470
0.267081,0.016235,0.997070,-0.121704,0.392914,-0.789642,0.000000
0.267228,0.009644,1.000854,-0.120117,1.956940,-2.368927,-2.674103
0.267375,0.011230,0.999146,-0.119507,-2.738953,2.758026,2.288818
0.267522,0.017212,0.998901,-0.115845,3.131866,-1.972198,-2.292633
0.267669,0.020508,0.996582,-0.116821,-0.392914,-1.186371,-1.148224
0.267816,0.016235,0.994141,-0.117432,-3.131866,1.968384,2.288818
0.267963,0.010132,0.995239,-0.117798,1.564026,-1.186371,-3.055573
0.268110,0.012573,0.997192,-0.118408,0.000000,1.182556,1.525879
0.268257,0.017334,0.999756,-0.119141,0.782013,-2.761841,-2.292633
0.268404,0.018677,0.998169,-0.119141,0.000000,1.182556,0.381470
0.268551,0.022705,0.994385,-0.119507,0.000000,0.392914,0.381470
0.268698,0.017334,0.996582,-0.117920,-0.782013,0.000000,-0.385284
0.268845,0.008545,0.997925,-0.114746,0.782013,-2.761841,-1.529694
0.268992,0.008667,0.997681,-0.117676,-1.174927,2.758026,0.000000
0.269138,0.010254,0.997803,-0.118042,2.349854,-3.551483,-0.766754
0.269285,0.015137,0.999878,-0.117920,-1.564026,1.968384,0.381470
0.269432,0.011475,1.002441,-0.117310,0.392914,-0.789642,-1.529694
0.269579,0.015381,1.003418,-0.116089,-1.174927,0.000000,-0.385284
0.269726,0.019531,1.003296,-0.118408,0.782013,-0.789642,0.000000
0.269873,0.017944,1.000244,-0.121582,0.392914,-0.396729,0.000000
0.270020,0.019531,1.001343,-0.122314,-1.564026,0.000000,-0.766754
0.270168,0.013794,1.000000,-0.117432,0.392914,0.000000,0.000000
0.270314,0.012573,0.997803,-0.115845,1.564026,0.000000,-1.911163
0.270464,0.008423,1.001709,-0.115356,-1.564026,0.785828,1.907349
0.270610,0.013916,0.998413,-0.119873,1.956940,-1.972198,-2.292633
0.270757,0.019409,1.000000,-0.119141,-1.174927,1.575470,-1.148224
0.270904,0.014160,1.001709,-0.112427,1.174927,-1.972198,0.000000
0.271051,0.013184,0.996338,-0.118408,-1.956940,0.392914,1.525879
0.271198,0.013184,0.998535,-0.119019,0.392914,0.785828,-1.911163
0.271345,0.013428,1.000977,-0.114990,-1.174927,-1.579285,2.288818
0.271492,0.013672,0.998047,-0.119751,2.349854,-0.396729,-3.437042
0.271638,0.019653,0.996582,-0.118530,-1.174927,2.365112,1.525879
0.271786,0.021851,0.995117,-0.115967,1.174927,-1.186371,-2.674103
0.271933,0.015259,0.996826,-0.118896,0.782013,-1.579285,0.000000
